rtcDate,rtcTime,aX,aY,aZ,gX,gY,gZ,mX,mY,mZ,imu_degC,output_Hz,
06/01/2021,01:08:06.75,-27.83,-989.75,-178.71,4.39,0.12,3.72,-36.75,16.65,16.20,35.41,120.07,
06/01/2021,01:08:06.79,-27.83,-995.61,-151.86,4.21,0.30,-0.98,-38.55,15.45,13.95,35.60,120.07,
06/01/2021,01:08:06.81,-41.50,-982.91,-172.36,4.39,-0.24,-1.95,-36.90,16.50,16.35,35.36,120.07,
06/01/2021,01:08:06.81,-28.32,-982.91,-163.09,3.35,0.49,1.95,-36.90,16.50,16.35,35.22,120.07,
06/01/2021,01:08:06.82,-15.14,-986.33,-171.88,3.60,-1.40,4.63,-36.90,16.50,16.35,35.27,120.07,
06/01/2021,01:08:06.83,-24.41,-998.05,-162.11,3.84,1.83,0.98,-36.60,17.55,12.75,35.17,120.07,
06/01/2021,01:08:06.84,-28.32,-998.54,-164.06,4.39,0.98,2.26,-36.60,17.55,12.75,35.55,120.07,
06/01/2021,01:08:06.85,-21.97,-990.23,-161.62,3.96,1.34,2.01,-36.60,16.80,14.55,35.27,120.07,
06/01/2021,01:08:06.85,-28.32,-1000.49,-167.97,1.83,-0.73,-1.71,-36.60,16.80,14.55,35.36,120.07,
06/01/2021,01:08:06.86,-15.62,-984.86,-159.18,2.32,-0.49,-0.24,-35.55,16.50,13.80,35.70,120.07,
06/01/2021,01:08:06.86,-19.53,-993.65,-162.11,2.20,-1.83,-2.20,-37.35,16.05,13.50,35.55,120.07,
06/01/2021,01:08:06.88,-24.41,-985.35,-158.69,1.40,1.28,-0.55,-36.90,14.85,13.05,35.36,120.07,
06/01/2021,01:08:06.88,-16.11,-992.68,-159.67,2.07,0.85,-0.06,-38.10,16.50,15.60,35.55,120.07,
06/01/2021,01:08:06.89,-19.53,-998.54,-168.95,3.66,-0.37,1.83,-38.10,16.50,15.60,35.55,120.07,
06/01/2021,01:08:06.90,-20.02,-996.09,-162.11,2.62,-0.67,-0.18,-35.55,16.80,14.85,35.46,120.07,
06/01/2021,01:08:06.90,-16.60,-986.33,-162.60,3.35,-0.85,2.68,-35.55,16.80,14.85,35.55,120.07,
06/01/2021,01:08:06.92,-19.04,-998.54,-157.71,1.04,-0.12,1.46,-36.45,17.40,16.20,35.27,120.07,
06/01/2021,01:08:06.92,-36.13,-988.77,-165.04,1.46,0.24,-1.46,-36.45,17.40,16.20,35.17,120.07,
06/01/2021,01:08:06.93,-39.55,-986.33,-145.02,2.93,-0.91,0.91,-36.45,17.40,16.20,35.75,120.07,
06/01/2021,01:08:06.94,-32.71,-999.02,-153.32,1.71,1.59,-0.49,-36.45,18.60,13.20,35.46,120.07,
06/01/2021,01:08:06.94,-23.44,-987.30,-158.20,4.57,-2.68,-0.24,-36.45,18.60,13.20,35.89,120.07,
06/01/2021,01:08:06.96,-41.02,-992.68,-161.13,2.87,0.73,1.28,-36.90,15.30,15.60,35.55,120.07,
06/01/2021,01:08:06.96,-39.55,-998.05,-153.32,2.99,2.87,2.01,-36.90,15.30,15.60,35.41,120.07,
06/01/2021,01:08:06.97,-19.53,-1007.32,-154.30,1.28,-0.49,-0.73,-36.75,17.40,15.15,35.60,120.07,
06/01/2021,01:08:06.97,-24.90,-998.54,-144.04,3.60,1.77,1.40,-36.60,15.75,15.30,35.22,120.07,
06/01/2021,01:08:06.98,-20.02,-998.54,-157.23,3.96,2.56,-0.06,-36.60,15.75,15.30,35.22,120.07,
06/01/2021,01:08:07.00,-17.09,-990.23,-151.86,0.55,1.52,-2.44,-37.35,16.80,15.30,35.46,120.07,
06/01/2021,01:08:07.00,-31.25,-984.38,-151.37,1.34,0.30,-0.06,-37.35,16.80,15.30,35.36,120.07,
06/01/2021,01:08:07.01,-12.21,-981.93,-160.16,-1.16,0.49,-2.01,-36.45,18.90,14.70,35.17,120.07,
06/01/2021,01:08:07.01,-28.81,-984.38,-140.62,-1.10,0.06,-0.30,-36.45,18.90,14.70,35.36,120.07,
06/01/2021,01:08:07.02,-26.86,-987.30,-158.69,0.18,1.59,-0.55,-36.45,18.90,14.70,35.07,120.07,
06/01/2021,01:08:07.03,-15.14,-990.72,-155.76,0.06,2.44,0.49,-36.75,16.65,14.70,35.46,120.07,
06/01/2021,01:08:07.04,-18.07,-1000.49,-150.88,0.06,1.04,-1.28,-36.75,16.65,13.95,35.55,120.07,
06/01/2021,01:08:07.05,-30.76,-987.79,-147.46,1.77,0.37,0.12,-38.25,17.10,15.45,35.41,120.07,
06/01/2021,01:08:07.05,-31.25,-984.86,-153.81,1.40,-0.43,-1.59,-38.25,17.10,15.45,35.17,120.07,
06/01/2021,01:08:07.06,-8.30,-999.51,-151.37,0.91,0.85,1.46,-35.55,16.50,14.55,35.22,120.07,
06/01/2021,01:08:07.06,-23.93,-997.56,-151.86,2.01,-1.10,1.10,-35.55,16.50,14.55,35.60,120.07,
06/01/2021,01:08:07.08,-11.72,-990.72,-153.32,3.35,-0.79,0.61,-38.55,16.20,16.50,35.46,120.07,
06/01/2021,01:08:07.09,-30.76,-1000.98,-159.67,-0.37,2.74,-2.07,-38.55,16.20,16.50,35.22,120.07,
06/01/2021,01:08:07.09,-23.93,-994.63,-153.32,1.59,0.49,-0.61,-37.95,16.65,16.50,35.36,120.07,
06/01/2021,01:08:07.10,-34.18,-987.30,-161.62,-0.73,2.01,-1.10,-36.45,17.40,13.95,35.60,120.07,
06/01/2021,01:08:07.10,-30.27,-993.16,-161.62,2.32,1.34,-1.34,-36.45,17.40,13.95,35.55,120.07,
06/01/2021,01:08:07.12,-37.60,-999.02,-145.51,-0.79,-1.52,-1.46,-37.65,15.75,14.85,35.27,120.07,
06/01/2021,01:08:07.12,-34.18,-996.09,-158.69,2.44,-0.67,1.10,-37.65,15.75,14.85,35.17,120.07,
06/01/2021,01:08:07.13,-19.04,-997.56,-154.79,0.00,2.99,-0.73,-37.65,15.75,14.85,35.60,120.07,
06/01/2021,01:08:07.14,-27.83,-1001.46,-159.67,2.07,-2.62,0.98,-37.65,15.75,14.85,35.46,120.07,
06/01/2021,01:08:07.14,-28.81,-989.75,-154.30,1.40,-0.24,0.18,-37.20,16.65,13.95,35.07,120.07,
06/01/2021,01:08:07.15,-18.55,-993.65,-160.16,-0.06,0.12,-1.95,-36.60,17.25,15.60,35.60,120.07,
06/01/2021,01:08:07.16,-21.97,-989.26,-141.11,0.06,0.06,1.52,-36.90,14.85,14.85,35.55,120.07,
06/01/2021,01:08:07.17,-17.09,-981.93,-146.48,0.06,1.89,-0.55,-37.95,16.65,15.45,35.60,120.07,
06/01/2021,01:08:07.17,-45.41,-1002.44,-154.30,-0.37,0.61,-1.22,-37.95,16.65,15.45,35.46,120.07,
06/01/2021,01:08:07.18,-25.39,-989.75,-146.48,0.00,-0.91,0.91,-36.00,17.40,14.70,35.60,120.07,
06/01/2021,01:08:07.19,-22.95,-999.02,-155.76,0.79,1.28,0.79,-36.00,17.40,14.70,35.27,120.07,
06/01/2021,01:08:07.20,-32.23,-988.77,-154.30,0.49,-1.04,0.43,-37.35,17.25,16.35,35.22,120.07,
06/01/2021,01:08:07.21,-13.67,-993.65,-146.48,-0.37,0.49,-2.38,-38.25,17.10,16.35,35.36,120.07,
06/01/2021,01:08:07.21,-24.41,-980.96,-154.79,-0.37,1.10,-1.10,-38.25,17.10,15.90,35.36,120.07,
06/01/2021,01:08:07.22,-15.62,-980.96,-154.79,0.73,-0.61,-2.87,-38.25,17.10,15.90,35.70,120.07,
06/01/2021,01:08:07.23,-20.51,-998.54,-144.53,0.12,1.04,-1.28,-38.25,17.10,15.90,35.07,120.07,
06/01/2021,01:08:07.24,-14.65,-999.02,-145.51,2.07,-2.07,0.43,-36.00,17.85,14.40,35.46,120.07,
06/01/2021,01:08:07.25,-24.90,-992.19,-141.60,0.98,0.12,1.16,-36.00,17.85,14.40,35.55,120.07,
06/01/2021,01:08:07.25,-9.77,-997.56,-155.76,0.24,2.62,-0.79,-36.00,17.40,16.20,35.70,120.07,
06/01/2021,01:08:07.26,-21.97,-995.61,-147.46,-0.73,-1.22,-4.63,-36.00,17.40,16.20,35.07,120.07,
06/01/2021,01:08:07.26,-8.30,-990.23,-155.27,-0.24,0.24,0.12,-36.60,16.80,14.85,35.36,120.07,
06/01/2021,01:08:07.27,-19.04,-995.61,-139.65,1.89,0.73,0.18,-35.70,17.40,13.20,35.36,120.07,
06/01/2021,01:08:07.31,-21.00,-978.52,-140.14,-0.79,0.79,1.28,-37.65,15.30,16.80,35.17,120.07,
06/01/2021,01:08:07.33,-11.72,-1000.00,-156.25,0.24,-1.04,0.12,-37.20,16.65,14.40,35.46,120.07,
06/01/2021,01:08:07.33,-20.02,-993.16,-162.60,0.24,1.59,-1.04,-37.20,16.65,14.40,35.60,120.07,
06/01/2021,01:08:07.34,-8.79,-989.75,-153.32,0.12,0.00,-1.40,-37.20,16.65,14.40,35.60,120.07,
06/01/2021,01:08:07.34,-12.70,-990.23,-148.44,0.00,1.52,-0.30,-35.70,17.85,16.95,35.07,120.07,
06/01/2021,01:08:07.36,-18.55,-982.91,-153.32,0.67,0.85,0.55,-36.75,15.45,15.90,35.55,120.07,
06/01/2021,01:08:07.37,-25.88,-992.19,-155.76,1.52,1.28,-3.05,-36.75,15.45,15.90,35.27,120.07,
06/01/2021,01:08:07.37,-19.04,-993.16,-155.27,-0.85,1.65,-2.26,-37.35,17.55,13.05,35.41,120.07,
06/01/2021,01:08:07.38,-20.51,-997.56,-158.69,0.43,1.46,0.98,-37.35,17.55,13.05,35.07,120.07,
06/01/2021,01:08:07.38,-38.09,-985.84,-153.32,-1.10,0.91,-0.30,-35.10,17.25,14.55,35.70,120.07,
06/01/2021,01:08:07.40,-26.86,-990.72,-154.79,-0.18,1.22,0.55,-36.60,18.00,13.50,35.36,120.07,
06/01/2021,01:08:07.40,-18.55,-1001.46,-162.11,-1.10,0.24,0.61,-38.40,14.85,17.55,35.55,120.07,
06/01/2021,01:08:07.41,-24.90,-993.16,-156.74,-2.56,2.44,-3.48,-36.75,14.85,17.55,35.22,120.07,
06/01/2021,01:08:07.42,-15.14,-992.19,-159.67,0.43,-0.55,-1.89,-36.75,17.85,14.40,35.46,120.07,
06/01/2021,01:08:07.42,-15.62,-993.65,-155.27,1.65,-0.12,0.18,-36.75,17.85,14.40,35.46,120.07,
06/01/2021,01:08:07.43,-22.95,-998.05,-162.60,-1.04,-2.38,1.28,-36.75,17.85,14.40,35.41,120.07,
06/01/2021,01:08:07.44,-27.34,-999.51,-158.20,-1.10,1.46,1.34,-35.85,15.75,13.50,35.55,120.07,
06/01/2021,01:08:07.45,-23.44,-992.68,-164.55,0.37,2.44,0.79,-35.85,15.75,13.50,35.27,120.07,
06/01/2021,01:08:07.46,-20.51,-1000.00,-145.51,-2.93,0.98,1.46,-36.60,17.55,14.55,35.60,120.07,
06/01/2021,01:08:07.46,-26.37,-996.09,-160.64,-0.43,3.41,-0.06,-36.60,17.55,14.55,35.55,120.07,
06/01/2021,01:08:07.47,-28.32,-998.54,-164.55,-1.77,1.89,-0.73,-36.90,17.25,15.30,35.55,120.07,
06/01/2021,01:08:07.48,-25.39,-985.35,-146.00,-0.85,1.10,0.49,-36.00,16.65,15.90,35.36,120.07,
06/01/2021,01:08:07.49,-10.74,-997.07,-155.27,-2.20,0.55,-1.10,-36.00,16.65,15.90,35.60,120.07,
06/01/2021,01:08:07.49,-18.07,-989.75,-152.83,-1.40,1.46,-0.37,-36.15,15.75,13.80,35.46,120.07,
06/01/2021,01:08:07.50,-10.74,-1002.93,-160.64,-1.65,1.65,-0.37,-36.15,15.75,13.80,35.60,120.07,
06/01/2021,01:08:07.51,-26.86,-988.77,-176.76,-0.61,0.06,-0.30,-35.70,18.60,15.15,35.36,120.07,
06/01/2021,01:08:07.52,-14.65,-979.98,-167.48,-4.45,0.85,-4.09,-37.35,15.30,16.05,35.22,120.07,
06/01/2021,01:08:07.53,-32.71,-994.63,-161.13,-2.68,1.04,1.22,-37.35,15.30,16.05,35.46,120.07,
06/01/2021,01:08:07.53,-26.86,-996.09,-160.16,-2.13,2.44,1.34,-37.35,15.30,16.05,35.46,120.07,
06/01/2021,01:08:07.54,-13.18,-990.72,-158.69,-3.05,-0.85,1.10,-37.35,15.30,16.05,35.55,120.07,
06/01/2021,01:08:07.55,-30.27,-998.54,-150.39,-2.68,1.46,0.30,-35.10,16.50,14.85,35.60,120.07,
06/01/2021,01:08:07.55,-23.44,-992.68,-157.23,-3.11,0.30,0.24,-35.10,16.50,14.85,35.22,120.07,
06/01/2021,01:08:07.57,-9.28,-989.75,-152.83,-2.13,0.00,1.83,-37.35,16.05,15.60,35.36,120.07,
06/01/2021,01:08:07.57,-20.51,-995.12,-179.69,-5.18,2.50,1.95,-37.35,16.05,15.60,35.55,120.07,
06/01/2021,01:08:07.58,-21.00,-992.19,-167.97,-3.35,1.10,2.20,-37.65,17.25,15.60,35.60,120.07,
06/01/2021,01:08:07.58,-34.18,-1002.44,-164.06,-3.35,-0.43,3.60,-36.15,18.00,13.50,35.36,120.07,
06/01/2021,01:08:07.59,-28.32,-994.63,-158.20,-6.34,0.06,1.40,-36.15,18.00,13.50,35.17,120.07,
06/01/2021,01:08:07.61,-28.32,-1000.00,-163.57,-5.24,1.16,0.85,-37.50,15.90,15.90,35.22,120.07,
06/01/2021,01:08:07.61,-16.11,-1003.91,-169.43,-6.71,0.79,4.02,-37.50,15.90,15.90,35.55,120.07,
06/01/2021,01:08:07.62,-15.62,-1003.91,-169.43,-3.90,0.91,2.74,-37.65,17.25,16.05,35.36,120.07,
06/01/2021,01:08:07.62,-24.41,-993.65,-162.11,-4.39,1.16,2.68,-37.65,17.25,16.05,35.36,120.07,
06/01/2021,01:08:07.63,-27.34,-996.58,-161.62,-4.27,0.79,2.01,-37.65,17.25,16.05,35.70,120.07,
06/01/2021,01:08:07.64,-28.81,-996.09,-164.06,-7.99,0.12,0.85,-37.20,17.40,13.65,35.55,120.07,
06/01/2021,01:08:07.65,-28.32,-994.14,-158.69,-7.56,2.74,0.18,-37.20,17.40,13.65,35.70,120.07,
06/01/2021,01:08:07.66,-34.67,-981.93,-159.18,-7.32,0.61,-1.59,-36.15,17.25,12.30,35.36,120.07,
06/01/2021,01:08:07.66,-22.95,-998.54,-157.71,-9.15,2.07,0.06,-36.15,17.25,12.30,35.60,120.07,
06/01/2021,01:08:07.67,-21.97,-997.56,-165.04,-7.74,2.44,2.50,-37.20,18.15,14.70,35.27,120.07,
06/01/2021,01:08:07.67,-34.67,-1005.86,-159.18,-7.01,1.04,-0.85,-37.20,18.15,14.70,35.17,120.07,
06/01/2021,01:08:07.69,-26.86,-991.21,-174.32,-9.63,2.80,-0.06,-36.75,16.65,15.90,35.70,120.07,
06/01/2021,01:08:07.69,-27.34,-991.70,-175.78,-6.89,-1.52,3.23,-37.95,14.70,14.70,35.60,120.07,
06/01/2021,01:08:07.70,-16.60,-982.42,-174.80,-5.73,0.85,0.37,-37.95,14.70,14.70,35.55,120.07,
06/01/2021,01:08:07.71,-18.55,-999.51,-174.32,-3.84,0.73,2.62,-36.90,16.05,13.50,35.27,120.07,
06/01/2021,01:08:07.71,-30.76,-994.63,-158.69,-3.96,0.30,0.18,-36.90,16.05,13.50,35.22,120.07,
06/01/2021,01:08:07.73,-23.93,-1000.98,-161.62,-4.94,2.62,1.89,-37.50,15.45,14.70,35.36,120.07,
06/01/2021,01:08:07.73,-22.95,-983.89,-166.50,-4.15,2.44,2.01,-37.50,15.45,14.70,35.36,120.07,
06/01/2021,01:08:07.74,-19.53,-994.14,-176.27,-6.77,2.62,-0.18,-37.50,15.45,14.70,35.27,120.07,
06/01/2021,01:08:07.75,-15.14,-1008.30,-169.43,-6.10,3.35,1.34,-36.60,15.75,11.25,35.17,120.07,
06/01/2021,01:08:07.75,-21.97,-986.82,-180.66,-5.79,0.73,0.06,-36.60,15.75,11.25,35.36,120.07,
06/01/2021,01:08:07.77,-29.30,-988.28,-180.18,-6.52,0.24,0.85,-37.20,14.70,15.15,35.22,120.07,
06/01/2021,01:08:07.77,-24.90,-990.23,-189.45,-6.77,-0.91,1.28,-37.20,14.70,15.15,35.60,120.07,
06/01/2021,01:08:07.78,-32.23,-980.96,-183.59,-5.49,2.01,2.13,-36.15,16.05,14.85,35.70,120.07,
06/01/2021,01:08:07.78,-22.95,-977.54,-189.45,-4.57,0.98,1.22,-36.15,16.05,14.85,35.36,120.07,
06/01/2021,01:08:07.79,-30.27,-984.86,-186.52,-5.79,-0.49,0.49,-36.00,16.20,13.20,35.22,120.07,
06/01/2021,01:08:07.83,-24.90,-980.96,-196.78,-4.51,1.40,-0.85,-39.15,13.35,16.05,35.46,120.07,
06/01/2021,01:08:07.85,-28.81,-1004.39,-187.01,-1.16,0.98,2.74,-39.15,15.30,15.30,35.55,120.07,
06/01/2021,01:08:07.85,-15.14,-981.93,-187.01,-3.17,-0.61,-0.43,-39.15,15.30,15.30,35.36,120.07,
06/01/2021,01:08:07.86,-25.88,-998.54,-184.57,-2.80,1.28,1.16,-35.25,15.45,12.90,35.22,120.07,
06/01/2021,01:08:07.86,-25.39,-980.47,-186.52,-2.44,-1.77,0.49,-35.25,15.45,12.90,35.36,120.07,
06/01/2021,01:08:07.87,-27.34,-977.05,-178.22,-2.38,1.59,1.16,-36.00,16.20,13.20,35.60,120.07,
06/01/2021,01:08:07.89,-16.11,-993.65,-183.11,-1.77,0.79,3.54,-34.80,15.30,12.75,35.36,120.07,
06/01/2021,01:08:07.89,-22.46,-985.35,-187.50,-1.22,1.16,0.43,-38.10,16.05,15.30,35.07,120.07,
06/01/2021,01:08:07.90,-22.95,-994.14,-194.34,-3.05,2.26,1.77,-35.70,16.65,12.60,35.36,120.07,
06/01/2021,01:08:07.90,-24.41,-980.96,-180.18,0.67,0.18,1.65,-35.70,16.65,12.60,35.36,120.07,
06/01/2021,01:08:07.91,-24.90,-994.14,-181.64,-1.40,1.77,2.26,-36.15,16.80,13.05,35.55,120.07,
06/01/2021,01:08:07.92,-31.25,-988.28,-190.43,-0.79,-0.37,-0.43,-36.90,15.75,15.30,35.46,120.07,
06/01/2021,01:08:07.93,-29.79,-992.19,-205.57,-1.40,-0.24,1.16,-36.90,15.30,14.85,34.93,120.07,
06/01/2021,01:08:07.94,-12.70,-984.86,-188.96,-3.29,2.62,1.52,-36.90,15.30,14.85,35.60,120.07,
06/01/2021,01:08:07.94,-32.71,-975.59,-193.36,-1.77,0.79,-0.43,-36.90,15.30,14.85,35.55,120.07,
06/01/2021,01:08:07.95,-11.72,-976.07,-190.92,-2.32,-0.24,2.68,-36.45,15.45,13.20,35.27,120.07,
06/01/2021,01:08:07.96,-27.34,-983.40,-202.64,-3.66,2.32,1.46,-36.45,15.45,13.20,35.55,120.07,
06/01/2021,01:08:07.97,-23.93,-974.61,-198.73,-2.38,-0.12,0.61,-38.10,16.05,15.60,35.36,120.07,
06/01/2021,01:08:07.98,-26.37,-989.26,-194.34,-3.90,-1.34,2.62,-38.10,16.05,15.60,35.41,120.07,
06/01/2021,01:08:07.98,-19.53,-984.38,-191.41,-3.60,-0.55,2.99,-36.60,16.05,13.50,35.36,120.07,
06/01/2021,01:08:07.99,-23.93,-988.77,-189.94,-5.06,-1.10,0.30,-36.60,16.05,13.50,35.22,120.07,
06/01/2021,01:08:07.99,-30.27,-979.49,-187.01,-2.50,0.49,1.71,-36.60,16.80,12.75,35.36,120.07,
06/01/2021,01:08:08.01,-34.18,-984.86,-187.01,-2.44,-0.55,3.17,-37.35,16.50,15.60,35.36,120.07,
06/01/2021,01:08:08.01,-35.16,-983.89,-177.73,-4.94,0.79,1.16,-37.35,16.50,15.60,35.46,120.07,
06/01/2021,01:08:08.02,-24.41,-989.75,-192.38,-3.29,2.07,1.40,-36.75,16.20,12.90,35.36,120.07,
06/01/2021,01:08:08.03,-15.62,-983.89,-197.75,-4.63,2.32,-0.91,-36.75,16.20,12.90,35.27,120.07,
06/01/2021,01:08:08.03,-21.97,-976.56,-198.24,-4.02,0.12,-0.49,-36.75,16.20,12.90,35.46,120.07,
06/01/2021,01:08:08.05,-25.39,-980.47,-204.10,-2.74,0.43,0.12,-36.60,16.80,12.75,35.22,120.07,
06/01/2021,01:08:08.05,-20.02,-995.61,-189.94,-2.32,0.85,0.61,-36.60,16.80,12.75,35.36,120.07,
06/01/2021,01:08:08.06,-25.88,-985.84,-187.01,-1.77,1.16,1.95,-36.60,16.80,12.75,35.55,120.07,
06/01/2021,01:08:08.07,-21.97,-981.93,-203.12,-1.71,1.22,1.40,-34.95,17.40,11.85,35.36,120.07,
06/01/2021,01:08:08.07,-22.95,-987.30,-187.99,-2.13,0.98,1.71,-34.95,17.40,11.85,35.22,120.07,
06/01/2021,01:08:08.09,-23.93,-980.47,-185.06,-1.83,-0.79,-0.18,-35.70,15.90,13.95,35.07,120.07,
06/01/2021,01:08:08.09,-41.02,-985.35,-187.99,-0.49,-0.18,0.18,-38.25,15.90,15.45,35.22,120.07,
06/01/2021,01:08:08.10,-26.86,-980.47,-202.15,0.49,2.93,-1.40,-38.25,15.90,15.45,35.22,120.07,
06/01/2021,01:08:08.10,-28.32,-976.07,-183.59,-1.46,1.89,-0.49,-34.80,15.30,13.50,35.55,120.07,
06/01/2021,01:08:08.11,-31.25,-979.00,-183.11,-2.44,-0.43,-1.46,-34.80,15.30,13.50,35.36,120.07,
06/01/2021,01:08:08.12,-42.97,-985.35,-198.24,-0.79,0.98,0.91,-35.10,16.80,12.75,35.46,120.07,
06/01/2021,01:08:08.13,-20.51,-978.52,-189.94,1.95,0.37,-0.55,-37.95,15.15,15.45,35.60,120.07,
06/01/2021,01:08:08.14,-35.16,-985.84,-196.29,2.56,-0.18,-0.24,-37.95,15.15,15.45,35.55,120.07,
06/01/2021,01:08:08.14,-24.90,-982.91,-203.61,2.62,1.95,2.01,-37.95,15.15,15.45,35.27,120.07,
06/01/2021,01:08:08.15,-20.51,-983.89,-201.66,1.46,0.06,1.52,-37.95,15.15,15.45,35.46,120.07,
06/01/2021,01:08:08.16,-36.62,-985.84,-193.36,4.27,-0.73,2.62,-34.95,14.70,13.65,35.55,120.07,
06/01/2021,01:08:08.17,-28.81,-976.07,-200.68,1.04,2.62,-5.37,-34.95,14.70,13.65,35.17,120.07,
06/01/2021,01:08:08.18,-28.81,-989.26,-202.15,-0.98,-0.98,1.16,-37.65,15.30,14.85,35.07,120.07,
06/01/2021,01:08:08.18,-40.04,-973.14,-207.03,-0.30,-0.12,-3.35,-36.15,15.30,13.50,35.22,120.07,
06/01/2021,01:08:08.19,-25.88,-963.87,-186.04,1.16,0.24,-2.13,-36.15,15.30,13.50,35.60,120.07,
06/01/2021,01:08:08.19,-20.02,-987.30,-207.03,2.38,-1.10,1.89,-35.25,16.20,13.20,35.41,120.07,
06/01/2021,01:08:08.21,-27.34,-964.84,-202.64,1.04,-0.24,-2.07,-36.15,16.05,12.30,35.22,120.07,
06/01/2021,01:08:08.22,-26.37,-981.45,-196.29,0.67,-0.24,-1.22,-39.30,14.70,15.45,35.36,120.07,
06/01/2021,01:08:08.22,-44.92,-972.66,-195.31,2.01,-1.71,-0.06,-39.30,14.70,15.45,35.27,120.07,
06/01/2021,01:08:08.23,-39.06,-980.96,-189.45,1.65,0.00,0.85,-35.55,17.55,12.30,35.22,120.07,
06/01/2021,01:08:08.23,-23.93,-984.38,-187.01,0.30,-0.24,-1.28,-35.70,15.90,13.20,35.22,120.07,
06/01/2021,01:08:08.24,-40.04,-971.68,-196.29,-0.73,-0.85,-0.73,-35.70,15.90,13.20,35.60,120.07,
06/01/2021,01:08:08.26,-42.97,-972.17,-195.31,2.68,1.22,-0.18,-34.80,16.80,13.50,35.27,120.07,
06/01/2021,01:08:08.26,-33.69,-984.86,-196.29,0.43,1.34,0.37,-34.80,16.80,13.50,35.27,120.07,
06/01/2021,01:08:08.27,-25.88,-988.77,-197.75,1.34,1.71,-1.65,-34.95,17.40,12.60,35.46,120.07,
06/01/2021,01:08:08.27,-38.57,-971.68,-199.71,1.16,-1.65,-1.22,-34.95,17.40,12.60,35.70,120.07,
06/01/2021,01:08:08.28,-24.41,-986.33,-196.78,0.49,0.67,-0.37,-34.95,17.40,12.60,35.22,120.08,
06/01/2021,01:08:08.29,-9.28,-979.98,-190.43,-0.30,1.52,-1.46,-36.75,15.45,14.40,35.27,120.07,
06/01/2021,01:08:08.30,-41.02,-971.19,-197.75,-0.12,0.43,-0.79,-36.75,15.45,14.40,35.46,120.07,
06/01/2021,01:08:08.31,-18.07,-969.73,-201.66,0.98,-0.55,-2.32,-35.10,17.25,12.00,35.27,120.07,
06/01/2021,01:08:08.34,-41.02,-973.63,-194.82,1.89,1.04,-4.33,-37.65,16.80,14.25,35.22,120.07,
06/01/2021,01:08:08.35,-36.13,-980.96,-191.41,-0.30,1.89,-0.98,-37.65,16.80,14.25,35.46,120.07,
06/01/2021,01:08:08.37,-39.55,-983.89,-183.11,1.65,1.16,-0.79,-37.35,14.85,14.25,35.36,120.07,
06/01/2021,01:08:08.37,-31.74,-990.72,-193.85,4.09,-0.98,-0.67,-37.35,14.85,14.25,35.46,120.07,
06/01/2021,01:08:08.38,-37.60,-982.91,-181.64,1.22,-1.28,-0.85,-36.45,16.20,15.15,35.55,120.07,
06/01/2021,01:08:08.39,-36.62,-983.40,-198.73,1.83,0.12,-1.28,-36.45,16.65,13.65,35.55,120.07,
06/01/2021,01:08:08.39,-32.71,-973.63,-186.52,0.12,1.16,-1.22,-36.45,16.65,13.65,35.22,120.07,
06/01/2021,01:08:08.41,-35.64,-979.49,-196.29,-0.30,0.30,-1.22,-36.90,15.30,14.85,35.22,120.07,
06/01/2021,01:08:08.41,-29.30,-990.23,-191.41,0.91,2.38,1.10,-36.90,15.30,14.85,35.46,120.07,
06/01/2021,01:08:08.42,-29.30,-995.61,-190.92,0.85,1.52,-0.06,-36.00,17.85,13.20,35.36,120.07,
06/01/2021,01:08:08.42,-28.81,-980.47,-199.22,1.65,-0.61,0.61,-36.00,17.85,13.20,35.22,120.07,
06/01/2021,01:08:08.43,-18.55,-982.42,-189.45,0.67,2.74,0.24,-36.45,16.65,12.90,35.17,120.07,
06/01/2021,01:08:08.44,-29.79,-986.82,-187.01,0.43,2.68,-1.71,-34.80,16.80,12.75,35.60,120.07,
06/01/2021,01:08:08.45,-42.48,-973.63,-186.04,-0.55,3.35,0.43,-37.35,14.55,14.25,35.36,120.07,
06/01/2021,01:08:08.46,-38.09,-986.33,-187.50,1.65,0.30,-0.12,-37.35,14.55,14.25,35.36,120.07,
06/01/2021,01:08:08.46,-21.48,-978.52,-186.52,0.18,1.95,-0.24,-37.35,14.55,14.25,35.46,120.07,
06/01/2021,01:08:08.47,-32.23,-984.86,-197.27,1.46,2.07,-1.10,-36.45,16.65,12.90,35.55,120.07,
06/01/2021,01:08:08.48,-29.79,-984.86,-192.87,0.43,-0.12,0.85,-36.45,16.65,12.90,35.46,120.07,
06/01/2021,01:08:08.49,-38.57,-984.38,-192.38,2.87,-1.04,-0.24,-38.55,14.40,13.95,35.55,120.07,
06/01/2021,01:08:08.50,-33.20,-989.26,-199.71,2.26,0.91,0.30,-37.95,16.20,14.70,35.36,120.07,
06/01/2021,01:08:08.50,-40.53,-986.82,-199.22,-0.18,1.95,-1.89,-37.95,16.20,14.70,35.22,120.07,
06/01/2021,01:08:08.51,-35.64,-986.82,-185.06,1.16,0.43,0.67,-36.60,16.05,12.30,35.55,120.07,
06/01/2021,01:08:08.51,-35.64,-981.93,-195.31,-2.07,1.77,0.18,-36.60,16.05,12.30,35.27,120.07,
06/01/2021,01:08:08.53,-35.16,-984.86,-192.87,1.34,1.65,1.59,-36.75,16.20,14.40,35.07,120.07,
06/01/2021,01:08:08.54,-36.13,-979.49,-182.62,0.91,1.46,-0.12,-36.75,16.20,14.40,35.60,120.07,
06/01/2021,01:08:08.54,-33.20,-977.54,-206.05,0.00,-0.30,0.12,-36.45,16.65,15.15,35.55,120.07,
06/01/2021,01:08:08.55,-41.50,-974.12,-197.75,2.62,2.62,-0.43,-36.45,16.65,15.15,35.60,120.07,
06/01/2021,01:08:08.55,-29.30,-981.93,-200.20,-1.04,2.62,-0.06,-36.45,16.65,15.15,35.41,120.07,
06/01/2021,01:08:08.56,-33.20,-976.56,-199.71,2.93,2.01,-0.37,-35.85,17.55,13.05,35.27,120.07,
06/01/2021,01:08:08.57,-26.86,-982.91,-193.85,1.34,0.79,-0.06,-35.85,17.55,13.05,35.22,120.07,
06/01/2021,01:08:08.58,-24.90,-973.63,-182.62,-0.18,2.01,-0.12,-37.65,15.30,15.30,35.22,120.07,
06/01/2021,01:08:08.59,-31.25,-987.30,-181.64,1.59,0.61,-0.61,-37.65,15.30,15.30,35.46,120.07,
06/01/2021,01:08:08.59,-39.55,-980.96,-179.20,-1.10,4.15,-0.67,-35.70,15.90,13.65,35.55,120.07,
06/01/2021,01:08:08.60,-33.69,-991.21,-191.89,-0.67,-0.18,-0.49,-35.55,16.50,12.00,35.60,120.07,
06/01/2021,01:08:08.61,-25.88,-988.28,-179.20,-2.20,3.78,-0.98,-36.45,15.90,13.65,35.46,120.07,
06/01/2021,01:08:08.62,-41.50,-983.89,-193.85,0.43,3.60,0.85,-38.40,15.75,14.85,35.27,120.07,
06/01/2021,01:08:08.63,-15.14,-984.38,-177.25,3.29,5.06,-0.30,-38.40,15.75,14.85,35.22,120.07,
06/01/2021,01:08:08.63,-9.77,-986.82,-179.20,1.95,3.29,-0.91,-34.35,16.50,13.50,35.55,120.07,
06/01/2021,01:08:08.64,-26.86,-984.38,-180.18,2.07,4.09,-0.49,-34.35,16.50,13.50,35.46,120.07,
06/01/2021,01:08:08.65,-28.81,-988.28,-184.08,2.99,0.30,0.85,-37.95,16.65,15.15,35.22,120.07,
06/01/2021,01:08:08.66,-28.81,-986.33,-176.27,2.50,0.98,1.34,-37.95,16.65,15.15,35.55,120.07,
06/01/2021,01:08:08.66,-28.81,-978.52,-176.76,4.02,1.77,2.99,-37.95,16.65,15.15,35.36,120.07,
06/01/2021,01:08:08.67,-34.18,-992.19,-192.38,3.48,3.48,0.98,-36.90,16.80,14.25,35.27,120.07,
06/01/2021,01:08:08.68,-31.25,-985.84,-183.11,1.65,2.93,-0.43,-36.90,16.80,14.25,35.46,120.07,
06/01/2021,01:08:08.68,-39.55,-990.72,-184.57,0.91,1.83,-2.93,-36.00,17.10,14.40,35.17,120.08,
06/01/2021,01:08:08.70,-46.88,-973.63,-188.48,1.16,1.77,-0.55,-36.15,18.45,13.05,35.03,120.07,
06/01/2021,01:08:08.70,-37.11,-971.19,-182.62,1.59,1.52,0.43,-37.35,14.10,15.30,35.46,120.07,
06/01/2021,01:08:08.71,-34.18,-988.77,-169.43,3.05,1.04,2.74,-37.35,14.10,15.30,35.60,120.07,
06/01/2021,01:08:08.71,-21.48,-979.98,-191.41,3.96,3.11,0.55,-35.10,16.50,12.75,35.27,120.08,
06/01/2021,01:08:08.72,-29.79,-982.91,-200.68,3.48,-0.55,0.18,-35.85,14.85,13.50,35.36,120.08,
06/01/2021,01:08:08.74,-20.02,-982.42,-184.08,2.80,0.00,0.24,-37.35,16.50,13.80,35.60,120.07,
06/01/2021,01:08:08.74,-40.04,-1005.86,-178.22,1.28,1.04,-1.95,-38.25,15.90,14.40,35.27,120.07,
06/01/2021,01:08:08.75,-22.95,-994.14,-190.43,-1.04,-0.37,-1.22,-38.25,15.90,14.40,35.27,120.08,
06/01/2021,01:08:08.75,-37.11,-995.12,-189.94,0.12,2.50,0.79,-38.25,15.90,14.40,35.46,120.08,
06/01/2021,01:08:08.76,-27.34,-989.75,-174.32,0.37,1.71,-1.16,-38.25,15.90,14.40,35.41,120.08,
06/01/2021,01:08:08.77,-15.62,-989.26,-197.75,0.91,-1.16,-2.07,-35.85,16.05,13.50,35.55,120.08,
06/01/2021,01:08:08.78,-20.51,-973.14,-172.85,1.40,-0.43,1.89,-36.60,15.75,15.30,35.27,120.08,
06/01/2021,01:08:08.79,-21.97,-987.79,-178.71,-1.04,-0.18,0.06,-36.60,15.75,15.30,35.17,120.08,
06/01/2021,01:08:08.79,-38.57,-991.70,-193.36,-1.40,-1.77,1.95,-36.90,16.80,13.80,35.55,120.08,
06/01/2021,01:08:08.80,-34.18,-986.33,-187.99,-0.67,0.61,-1.83,-36.90,16.80,13.80,35.27,120.08,
06/01/2021,01:08:08.80,-34.67,-993.65,-184.57,0.85,-1.95,0.43,-34.80,15.30,13.80,35.07,120.08,
06/01/2021,01:08:08.85,-29.79,-993.16,-196.78,-0.98,0.18,-1.77,-37.65,14.85,14.55,35.60,120.07,
06/01/2021,01:08:08.86,-26.86,-990.72,-178.22,-3.54,-1.95,1.83,-36.60,16.50,14.25,35.70,120.07,
06/01/2021,01:08:08.87,-22.95,-981.93,-181.15,0.73,-1.89,-0.67,-36.60,16.50,14.25,35.55,120.07,
06/01/2021,01:08:08.87,-18.55,-1002.44,-179.20,-1.28,-1.46,-1.65,-35.70,17.10,13.65,35.22,120.07,
06/01/2021,01:08:08.88,-32.71,-993.16,-174.80,-1.59,-1.71,-2.26,-35.70,17.10,13.65,35.17,120.07,
06/01/2021,01:08:08.89,-35.16,-991.70,-195.80,-0.98,-0.98,-2.62,-36.75,15.45,15.45,35.22,120.07,
06/01/2021,01:08:08.90,-28.32,-996.58,-200.20,0.98,-0.85,0.98,-36.75,15.45,15.45,35.55,120.07,
06/01/2021,01:08:08.91,-25.88,-975.10,-179.69,-2.80,-2.74,0.85,-36.75,17.10,14.40,35.60,120.07,
06/01/2021,01:08:08.91,-33.20,-992.19,-191.89,-0.67,-1.28,-1.16,-36.75,17.10,14.40,35.27,120.07,
06/01/2021,01:08:08.92,-20.51,-986.33,-196.78,-0.98,-1.83,-1.04,-36.00,17.40,12.90,35.55,120.07,
06/01/2021,01:08:08.95,-30.27,-978.52,-184.08,0.00,-0.79,-0.18,-40.50,13.50,18.00,35.46,120.07,
06/01/2021,01:08:08.95,-16.60,-984.38,-175.78,-1.65,-3.84,-0.37,-40.50,13.50,18.00,35.55,120.07,
06/01/2021,01:08:08.96,-14.65,-990.23,-191.41,0.55,-0.49,-2.87,-40.50,13.50,18.00,35.55,120.07,
06/01/2021,01:08:08.97,-23.44,-990.72,-183.59,-1.65,-0.37,-1.89,-35.25,16.65,13.95,35.60,120.07,
06/01/2021,01:08:08.97,-36.13,-987.79,-191.89,-3.05,-1.16,-3.90,-35.25,16.65,13.95,35.41,120.07,
06/01/2021,01:08:08.98,-16.11,-990.72,-190.43,-1.28,-2.62,-3.41,-34.80,15.75,12.75,35.17,120.07,
06/01/2021,01:08:08.99,-27.83,-981.93,-182.62,-0.24,-0.49,-1.28,-35.85,15.75,13.05,35.22,120.07,
06/01/2021,01:08:09.00,-20.02,-982.42,-184.08,-0.12,-3.54,0.12,-37.20,15.45,16.50,35.36,120.07,
06/01/2021,01:08:09.00,-31.74,-990.72,-169.92,0.55,-0.91,-0.73,-35.85,17.55,13.05,35.60,120.07,
06/01/2021,01:08:09.01,-22.46,-972.66,-179.20,-0.30,-1.89,-0.18,-35.85,17.55,13.05,35.55,120.07,
06/01/2021,01:08:09.02,-15.14,-991.21,-180.18,0.79,-2.01,-0.30,-36.15,16.05,13.50,35.60,120.07,
06/01/2021,01:08:09.03,-20.02,-990.23,-191.41,-2.99,-0.43,-2.01,-36.15,16.05,13.50,35.07,120.07,
06/01/2021,01:08:09.04,-30.76,-979.98,-188.96,-0.67,-2.26,0.30,-36.60,15.30,16.80,35.36,120.07,
06/01/2021,01:08:09.04,-28.81,-965.82,-185.55,-0.43,-2.07,-0.61,-36.60,15.30,16.80,35.55,120.07,
06/01/2021,01:08:09.05,-11.72,-987.30,-185.06,-1.89,-0.37,-1.52,-36.60,15.30,16.80,35.36,120.07,
06/01/2021,01:08:09.06,-11.23,-978.52,-182.13,-3.11,-2.99,-1.71,-36.60,16.80,13.50,35.36,120.07,
06/01/2021,01:08:09.07,-28.81,-969.73,-192.38,1.77,-4.09,-1.46,-36.45,15.45,13.65,35.07,120.07,
06/01/2021,01:08:09.08,-12.70,-986.82,-187.99,-0.79,-3.78,0.24,-37.95,17.85,14.70,35.46,120.07,
06/01/2021,01:08:09.08,-23.44,-983.40,-179.20,-1.10,-3.84,0.18,-37.95,17.85,14.70,35.41,120.07,
06/01/2021,01:08:09.09,-22.95,-993.16,-178.22,1.77,-2.26,-1.95,-35.85,15.30,13.05,35.60,120.07,
06/01/2021,01:08:09.09,-21.97,-984.38,-190.43,-0.98,-2.26,-2.50,-35.85,15.30,13.05,35.27,120.07,
06/01/2021,01:08:09.11,-29.30,-991.70,-180.18,1.77,-0.91,-1.95,-36.60,15.75,13.80,35.17,120.07,
06/01/2021,01:08:09.12,-29.79,-983.40,-190.92,-1.40,0.73,-1.46,-37.35,14.10,16.05,35.27,120.07,
06/01/2021,01:08:09.12,-22.46,-980.96,-179.69,-2.68,-2.07,-3.60,-37.35,14.10,16.05,35.55,120.07,
06/01/2021,01:08:09.13,-21.00,-985.84,-179.20,-2.50,-1.83,-0.37,-35.70,15.90,13.95,35.36,120.07,
06/01/2021,01:08:09.13,-34.67,-975.59,-176.76,-1.28,-3.17,-2.80,-35.70,15.90,13.95,35.55,120.07,
06/01/2021,01:08:09.14,-26.86,-971.68,-179.20,-0.55,-0.30,-2.80,-35.70,15.90,13.95,35.17,120.07,
06/01/2021,01:08:09.15,-27.34,-971.19,-180.66,-0.37,-2.44,-2.68,-34.50,17.10,13.20,35.46,120.07,
06/01/2021,01:08:09.16,-15.14,-995.12,-197.75,-2.01,-1.65,-1.83,-34.50,17.10,13.20,35.36,120.07,
06/01/2021,01:08:09.17,-23.93,-990.23,-179.69,0.73,-3.60,-0.98,-34.95,15.90,12.60,35.46,120.07,
06/01/2021,01:08:09.17,-21.97,-990.23,-192.87,-0.24,-0.91,1.77,-34.95,15.90,12.60,35.55,120.07,
06/01/2021,01:08:09.18,-12.21,-980.96,-191.41,0.12,-1.71,0.30,-36.45,15.15,13.65,35.07,120.07,
06/01/2021,01:08:09.19,-8.79,-994.14,-181.15,-3.23,-3.17,0.12,-37.50,16.65,12.15,35.70,120.07,
06/01/2021,01:08:09.20,-14.16,-981.45,-182.13,-0.30,-2.62,-0.85,-37.50,17.10,15.90,35.55,120.07,
06/01/2021,01:08:09.21,-21.48,-994.14,-190.92,-2.07,-1.28,-1.10,-37.50,17.10,15.90,35.27,120.07,
06/01/2021,01:08:09.21,-26.86,-994.14,-191.89,-2.80,-2.38,-3.41,-35.85,18.00,14.25,35.46,120.07,
06/01/2021,01:08:09.22,-17.58,-988.77,-182.62,-1.83,-2.56,-2.80,-36.00,16.20,14.40,35.60,120.07,
06/01/2021,01:08:09.23,-30.27,-985.35,-175.29,0.24,0.30,-1.71,-36.00,16.20,14.40,35.60,120.07,
06/01/2021,01:08:09.24,-13.67,-979.49,-181.15,-1.95,-1.10,-5.55,-37.65,17.55,13.80,35.03,120.07,
06/01/2021,01:08:09.24,-15.62,-975.59,-184.57,-1.65,-4.39,0.67,-37.65,17.55,13.80,35.36,120.07,
06/01/2021,01:08:09.25,-28.32,-989.26,-190.92,0.12,-1.34,-0.85,-37.65,17.55,13.80,35.22,120.07,
06/01/2021,01:08:09.26,-25.88,-985.84,-186.52,-0.43,-2.50,-2.68,-37.65,17.55,13.80,35.55,120.07,
06/01/2021,01:08:09.27,-18.07,-980.96,-186.04,-0.24,-2.07,-2.07,-36.90,16.50,14.55,35.17,120.07,
06/01/2021,01:08:09.28,-19.04,-991.21,-191.89,1.04,-4.15,0.85,-37.50,16.65,14.70,35.36,120.07,
06/01/2021,01:08:09.28,-23.44,-993.16,-186.52,-2.99,-2.07,-4.45,-37.50,16.65,14.70,35.46,120.07,
06/01/2021,01:08:09.29,-24.41,-984.38,-183.59,-1.89,-1.71,-3.72,-36.15,15.75,14.55,35.36,120.07,
06/01/2021,01:08:09.30,-33.69,-983.89,-189.94,-1.89,-3.41,-1.71,-36.15,15.75,14.55,35.07,120.08,
06/01/2021,01:08:09.30,-16.11,-984.86,-186.52,-1.83,-1.95,-1.65,-35.85,14.85,13.80,35.27,120.08,
06/01/2021,01:08:09.32,-17.58,-987.30,-180.18,-0.79,-2.44,-0.67,-34.05,16.50,12.75,35.41,120.07,
06/01/2021,01:08:09.32,-18.07,-995.12,-195.31,-0.67,-2.13,-2.56,-34.05,16.50,12.75,35.27,120.07,
06/01/2021,01:08:09.36,-28.81,-993.65,-198.73,0.37,-1.52,-2.74,-37.65,15.75,15.30,35.41,120.07,
06/01/2021,01:08:09.37,-37.11,-987.30,-185.55,0.79,-1.16,-1.71,-37.95,16.65,16.20,35.22,120.07,
06/01/2021,01:08:09.38,-28.32,-1000.00,-184.08,0.61,1.28,-1.10,-37.95,16.65,16.20,35.46,120.07,
06/01/2021,01:08:09.39,-25.39,-983.40,-191.89,-0.43,-1.77,-1.83,-37.35,15.75,13.50,35.22,120.07,
06/01/2021,01:08:09.40,-11.23,-984.38,-180.18,1.52,-1.46,-2.87,-37.35,15.75,13.50,35.22,120.07,
06/01/2021,01:08:09.40,-21.48,-982.42,-192.38,-0.67,-1.52,-0.79,-36.00,16.65,14.70,35.27,120.07,
06/01/2021,01:08:09.41,-21.48,-986.82,-185.55,-1.65,0.12,-3.17,-36.00,16.65,14.70,35.27,120.07,
06/01/2021,01:08:09.42,-24.90,-986.82,-179.20,0.98,1.40,-2.56,-36.00,16.65,14.70,35.27,120.07,
06/01/2021,01:08:09.43,-17.58,-987.79,-197.27,0.37,-0.85,-3.35,-36.15,17.25,13.80,35.36,120.07,
06/01/2021,01:08:09.44,-12.21,-978.03,-184.08,0.06,1.89,-3.35,-36.15,17.25,13.80,35.27,120.07,
06/01/2021,01:08:09.44,-14.16,-985.84,-176.27,0.00,1.77,-4.88,-35.85,14.85,14.55,35.36,120.07,
06/01/2021,01:08:09.45,-8.79,-979.00,-190.43,-0.06,-1.71,-1.77,-35.85,14.85,14.55,35.27,120.07,
06/01/2021,01:08:09.45,-21.00,-982.91,-197.27,-2.13,1.28,-3.41,-36.60,15.75,14.55,35.55,120.07,
06/01/2021,01:08:09.47,-22.46,-983.40,-196.78,0.06,-1.04,-1.52,-35.85,16.05,12.30,35.36,120.07,
06/01/2021,01:08:09.48,-20.02,-983.89,-187.99,-0.55,-1.34,-3.48,-37.20,14.40,15.90,35.27,120.07,
06/01/2021,01:08:09.48,-12.70,-972.66,-194.82,0.55,0.61,-0.85,-38.25,18.15,12.15,35.46,120.07,
06/01/2021,01:08:09.49,-18.07,-990.23,-184.57,-1.59,0.24,-3.60,-38.25,18.15,12.15,35.07,120.07,
06/01/2021,01:08:09.49,-11.23,-989.75,-208.01,0.30,1.10,0.67,-37.95,15.15,12.15,35.36,120.07,
06/01/2021,01:08:09.50,-15.62,-1001.95,-180.18,-0.79,2.93,0.55,-37.95,15.15,12.15,35.46,120.07,
06/01/2021,01:08:09.51,-19.04,-978.03,-205.08,-2.74,1.95,-4.27,-37.65,15.75,14.25,35.36,120.07,
06/01/2021,01:08:09.52,-17.09,-977.05,-188.48,-1.22,1.52,-0.24,-37.65,15.75,14.25,35.22,120.07,
06/01/2021,01:08:09.53,-16.60,-977.05,-190.43,-1.71,1.59,-4.88,-37.65,15.75,14.25,35.36,120.07,
06/01/2021,01:08:09.53,-6.35,-982.42,-179.20,0.30,0.06,0.37,-36.60,16.50,13.80,35.46,120.07,
06/01/2021,01:08:09.54,-12.70,-989.26,-187.99,-2.32,-1.59,-0.37,-36.60,16.50,13.80,35.41,120.07,
06/01/2021,01:08:09.55,-15.62,-979.00,-185.55,-3.29,-0.61,-2.32,-36.90,14.55,15.30,35.36,120.07,
06/01/2021,01:08:09.56,-10.25,-985.35,-194.82,-1.16,-1.65,-1.10,-36.90,14.55,15.30,35.36,120.07,
06/01/2021,01:08:09.57,-23.93,-982.91,-196.78,-0.12,0.91,0.55,-37.35,17.25,13.05,35.36,120.07,
06/01/2021,01:08:09.57,-5.86,-975.10,-178.71,0.24,0.67,-0.37,-37.35,17.25,13.05,35.60,120.07,
06/01/2021,01:08:09.58,-14.65,-995.12,-193.85,-1.59,1.22,-1.22,-36.75,17.10,13.20,35.41,120.07,
06/01/2021,01:08:09.60,-4.39,-988.28,-185.55,1.28,1.52,-0.73,-37.65,15.75,13.80,35.36,120.07,
06/01/2021,01:08:09.61,-11.23,-980.96,-189.45,-1.40,1.89,-3.11,-38.55,14.40,15.15,35.27,120.07,
06/01/2021,01:08:09.61,-17.09,-989.75,-190.92,-0.98,0.73,-3.11,-38.55,14.40,15.15,35.22,120.07,
06/01/2021,01:08:09.62,-13.18,-979.00,-179.69,-0.30,1.10,-2.50,-38.55,14.40,15.15,35.07,120.07,
06/01/2021,01:08:09.62,-17.58,-988.77,-197.27,-0.98,0.98,-3.23,-37.20,16.20,13.95,35.55,120.07,
06/01/2021,01:08:09.63,-16.11,-982.42,-198.73,-2.07,-0.79,-1.77,-37.20,16.20,13.95,35.36,120.07,
06/01/2021,01:08:09.65,-20.02,-993.16,-192.87,-3.54,-0.61,-1.71,-38.55,16.20,14.70,35.27,120.07,
06/01/2021,01:08:09.65,-10.25,-992.19,-191.89,-1.28,0.30,-0.85,-38.55,16.20,14.70,35.60,120.07,
06/01/2021,01:08:09.66,-9.77,-977.05,-199.71,-1.89,3.17,-1.10,-36.60,15.75,14.25,35.46,120.07,
06/01/2021,01:08:09.66,-21.97,-981.45,-195.31,0.73,1.16,-1.95,-35.85,15.75,13.05,35.27,120.07,
06/01/2021,01:08:09.67,-10.74,-978.03,-188.48,2.99,-2.62,0.30,-35.85,15.75,13.05,35.46,120.07,
06/01/2021,01:08:09.69,-16.60,-990.23,-169.92,3.17,1.46,-0.06,-36.90,15.30,14.85,35.36,120.07,
06/01/2021,01:08:09.69,-21.00,-985.84,-191.41,-2.87,0.55,1.22,-36.90,15.30,14.85,35.60,120.07,
06/01/2021,01:08:09.70,-17.58,-982.91,-193.36,-1.04,2.93,-0.85,-35.70,16.20,12.15,34.93,120.07,
06/01/2021,01:08:09.70,-16.60,-983.89,-197.75,0.67,0.37,-0.73,-35.70,16.20,12.15,35.22,120.07,
06/01/2021,01:08:09.71,-19.53,-983.40,-187.01,2.38,2.50,-2.01,-35.70,16.20,12.15,35.55,120.07,
06/01/2021,01:08:09.72,-21.00,-989.26,-190.43,-0.98,-0.79,-0.85,-36.00,17.10,13.20,35.22,120.07,
06/01/2021,01:08:09.73,-14.16,-982.91,-190.92,0.06,1.95,0.12,-36.00,17.10,13.20,35.17,120.07,
06/01/2021,01:08:09.74,-12.21,-998.54,-184.08,3.54,3.23,0.12,-38.10,16.05,13.80,35.27,120.07,
06/01/2021,01:08:09.74,-8.30,-981.93,-187.01,-0.37,3.11,-3.11,-38.10,16.05,13.80,35.36,120.07,
06/01/2021,01:08:09.75,-24.90,-976.07,-182.62,1.77,2.13,-2.26,-36.45,17.10,12.15,35.55,120.07,
06/01/2021,01:08:09.76,-14.65,-978.03,-192.38,1.89,2.13,2.20,-35.55,16.05,13.50,35.60,120.07,
06/01/2021,01:08:09.77,-22.46,-981.45,-201.66,0.91,0.49,1.04,-39.75,14.70,14.70,35.55,120.07,
06/01/2021,01:08:09.77,-12.21,-991.21,-192.87,0.49,1.95,3.29,-36.90,17.25,14.70,35.55,120.07,
06/01/2021,01:08:09.78,-0.49,-979.98,-190.92,1.77,1.40,0.18,-36.90,17.25,13.05,35.36,120.07,
06/01/2021,01:08:09.79,-27.34,-981.45,-190.43,0.37,0.55,-0.12,-36.60,16.80,13.80,35.22,120.07,
06/01/2021,01:08:09.79,-7.81,-982.91,-194.34,-0.30,0.30,-1.34,-36.60,16.80,13.80,35.17,120.07,
06/01/2021,01:08:09.81,-7.32,-978.03,-187.50,1.52,2.32,-1.16,-36.60,15.75,13.05,35.46,120.07,
06/01/2021,01:08:09.81,-18.55,-990.23,-204.10,-1.71,1.83,-0.49,-36.60,15.75,13.05,35.55,120.07,
06/01/2021,01:08:09.82,-21.97,-993.16,-189.94,1.71,2.13,1.46,-36.60,15.75,13.05,35.55,120.07,
06/01/2021,01:08:09.82,-8.79,-976.07,-198.73,2.26,1.10,0.98,-36.60,15.75,13.05,35.60,120.08,
06/01/2021,01:08:09.83,-5.86,-984.38,-192.87,1.83,1.34,-0.30,-36.45,15.45,12.60,35.22,120.08,
06/01/2021,01:08:09.89,-8.79,-982.91,-192.38,3.11,2.74,-0.37,-38.55,15.45,15.45,35.36,120.07,
06/01/2021,01:08:09.91,-20.02,-992.68,-185.06,1.77,2.62,2.01,-38.25,17.10,13.65,35.36,120.07,
06/01/2021,01:08:09.91,-4.88,-979.49,-184.08,1.04,2.13,0.00,-38.25,17.10,13.65,35.46,120.07,
06/01/2021,01:08:09.92,-11.72,-995.12,-204.59,4.02,0.24,1.95,-35.55,18.45,13.05,35.36,120.07,
06/01/2021,01:08:09.92,-11.72,-985.84,-199.22,2.87,1.34,3.41,-35.55,18.45,13.05,35.60,120.07,
06/01/2021,01:08:09.93,-6.84,-987.30,-190.92,2.74,4.88,2.56,-36.90,16.50,14.25,35.22,120.07,
06/01/2021,01:08:09.94,-1.95,-982.42,-190.43,1.16,3.35,-1.89,-35.85,16.50,13.05,35.60,120.07,
06/01/2021,01:08:09.95,-14.16,-986.33,-203.61,3.54,1.71,1.04,-39.30,15.45,15.90,35.55,120.07,
06/01/2021,01:08:09.96,-4.88,-993.65,-183.59,0.55,2.68,1.71,-39.30,15.45,15.90,35.36,120.07,
06/01/2021,01:08:09.96,-18.07,-979.98,-181.64,2.50,1.59,1.77,-35.85,16.50,14.25,35.46,120.07,
06/01/2021,01:08:09.97,-5.86,-978.52,-187.50,0.73,2.44,0.55,-38.40,16.50,12.75,35.07,120.07,
06/01/2021,01:08:09.98,-21.00,-983.89,-190.92,2.07,-1.04,0.12,-38.40,16.50,12.75,35.41,120.07,
06/01/2021,01:08:09.99,-22.95,-978.03,-182.62,2.44,4.57,1.28,-37.35,16.80,14.85,34.93,120.07,
06/01/2021,01:08:10.00,-19.53,-984.38,-172.85,-0.18,3.60,2.26,-37.35,16.80,14.85,35.36,120.07,
06/01/2021,01:08:10.00,-17.09,-981.93,-185.06,0.79,2.07,-0.49,-37.35,16.80,14.85,35.36,120.07,
06/01/2021,01:08:10.01,-6.35,-977.05,-181.15,1.46,-0.91,2.56,-37.35,16.80,14.85,35.36,120.07,
06/01/2021,01:08:10.02,-8.30,-982.91,-195.31,3.05,-0.73,1.28,-37.95,15.45,13.20,35.60,120.07,
06/01/2021,01:08:10.03,-20.51,-1001.95,-185.06,2.50,0.00,1.40,-37.50,16.65,13.20,35.55,120.07,
06/01/2021,01:08:10.03,-19.04,-994.63,-187.01,1.59,-0.85,2.07,-37.50,16.65,14.70,35.46,120.07,
06/01/2021,01:08:10.04,-7.81,-981.45,-192.38,-0.30,2.68,1.71,-36.15,16.05,12.30,35.60,120.07,
06/01/2021,01:08:10.05,-20.02,-986.33,-188.48,1.83,-1.10,1.95,-36.15,16.05,12.30,35.17,120.07,
06/01/2021,01:08:10.05,-9.77,-992.68,-181.64,-0.24,0.85,1.95,-35.55,17.55,13.50,35.36,120.07,
06/01/2021,01:08:10.07,-17.09,-987.30,-190.43,0.67,1.65,-0.37,-35.25,16.65,13.95,35.46,120.07,
06/01/2021,01:08:10.07,-27.34,-987.30,-186.04,1.40,1.34,1.95,-35.25,16.65,13.95,35.55,120.07,
06/01/2021,01:08:10.08,-25.88,-987.30,-178.22,1.22,-1.59,0.91,-35.25,16.65,13.95,35.22,120.07,
06/01/2021,01:08:10.08,-30.76,-983.40,-187.01,0.79,1.95,-1.16,-35.25,18.15,11.40,35.36,120.07,
06/01/2021,01:08:10.09,-23.93,-980.96,-190.43,1.16,1.16,1.89,-35.25,18.15,11.40,35.46,120.07,
06/01/2021,01:08:10.11,-11.23,-983.89,-186.04,0.37,-1.65,1.40,-35.25,15.45,15.15,35.36,120.07,
06/01/2021,01:08:10.11,-27.34,-987.30,-193.85,0.73,1.46,-0.06,-39.00,17.10,14.70,35.27,120.07,
06/01/2021,01:08:10.12,-27.34,-1000.49,-173.83,-1.04,0.30,2.07,-39.00,17.10,14.70,35.22,120.07,
06/01/2021,01:08:10.12,-26.86,-984.38,-181.64,0.73,1.16,-1.52,-36.00,17.40,13.20,35.60,120.07,
06/01/2021,01:08:10.13,-25.39,-978.03,-190.43,-0.06,0.30,1.16,-36.00,17.40,13.20,35.36,120.07,
06/01/2021,01:08:10.14,-5.86,-991.21,-183.59,0.91,1.89,0.30,-37.50,14.70,14.70,35.22,120.07,
06/01/2021,01:08:10.15,-4.39,-981.93,-186.52,0.00,-0.85,2.50,-37.35,16.05,14.70,35.60,120.07,
06/01/2021,01:08:10.16,-15.14,-981.45,-193.85,1.16,-1.04,2.38,-37.35,16.05,14.55,35.41,120.07,
06/01/2021,01:08:10.16,-16.60,-975.59,-183.59,0.91,-1.04,-0.12,-37.35,16.05,14.55,35.27,120.07,
06/01/2021,01:08:10.17,-36.62,-985.35,-191.89,-2.56,-2.01,2.07,-37.35,16.05,14.55,35.17,120.07,
06/01/2021,01:08:10.17,-17.58,-979.00,-176.76,0.79,0.00,2.01,-35.70,18.15,12.90,35.36,120.07,
06/01/2021,01:08:10.19,-25.39,-987.30,-191.41,0.06,-1.89,0.49,-35.70,18.15,12.90,35.70,120.07,
06/01/2021,01:08:10.19,-14.65,-993.65,-181.15,0.43,-0.55,2.50,-38.55,14.40,15.15,35.17,120.07,
06/01/2021,01:08:10.20,-21.97,-1000.00,-194.34,0.12,-0.73,1.16,-38.55,14.40,15.15,35.36,120.07,
06/01/2021,01:08:10.21,-20.02,-986.82,-192.87,-0.12,0.67,-0.37,-35.10,16.05,14.25,35.60,120.07,
06/01/2021,01:08:10.21,-28.32,-985.35,-184.08,-0.37,0.37,0.79,-35.85,16.80,13.50,35.27,120.07,
06/01/2021,01:08:10.23,-18.55,-987.30,-179.20,-0.43,-0.24,1.22,-36.15,14.10,14.55,35.46,120.07,
06/01/2021,01:08:10.23,-13.67,-993.65,-183.59,0.12,-1.34,-0.18,-36.75,15.90,15.45,35.46,120.07,
06/01/2021,01:08:10.24,-15.14,-999.02,-187.50,0.55,-1.28,1.16,-36.75,15.90,15.45,35.55,120.07,
06/01/2021,01:08:10.25,-24.90,-988.77,-178.71,0.43,-0.18,0.24,-36.60,14.85,12.30,35.22,120.07,
06/01/2021,01:08:10.25,-3.91,-975.59,-179.20,-0.85,0.18,-2.62,-36.75,17.10,12.60,35.36,120.07,
06/01/2021,01:08:10.27,-12.21,-986.33,-180.66,0.30,-1.40,-0.24,-35.25,14.40,14.70,35.22,120.07,
06/01/2021,01:08:10.27,-13.67,-990.23,-184.08,-1.04,0.73,1.22,-35.25,14.40,14.70,35.55,120.07,
06/01/2021,01:08:10.28,-16.60,-981.93,-177.25,0.49,-0.79,1.04,-35.25,14.40,14.70,35.55,120.07,
06/01/2021,01:08:10.28,-12.70,-986.82,-185.55,0.61,-0.43,2.93,-36.60,16.80,14.25,35.46,120.07,
06/01/2021,01:08:10.29,-29.79,-977.05,-190.43,2.32,-1.10,0.00,-36.60,16.80,14.25,35.60,120.07,
06/01/2021,01:08:10.30,-19.53,-993.16,-184.08,2.01,-1.28,-3.17,-36.60,16.80,14.25,35.46,120.07,
06/01/2021,01:08:10.31,-11.72,-990.72,-178.22,-0.37,0.18,-0.85,-36.60,16.05,13.80,35.27,120.07,
06/01/2021,01:08:10.32,-40.53,-980.96,-188.48,1.95,0.12,3.35,-37.20,15.45,15.90,35.36,120.07,
06/01/2021,01:08:10.32,-21.00,-985.84,-183.11,2.38,-2.13,0.30,-35.85,16.50,13.50,35.55,120.07,
06/01/2021,01:08:10.33,-17.58,-988.77,-178.22,-0.06,-0.73,-0.06,-35.85,16.50,13.50,35.36,120.07,
06/01/2021,01:08:10.34,-19.04,-984.38,-185.06,2.56,-1.16,3.78,-35.85,15.30,13.50,35.46,120.07,
06/01/2021,01:08:10.35,-17.09,-989.26,-173.83,1.77,-1.10,-1.52,-34.95,16.65,13.65,35.17,120.07,
06/01/2021,01:08:10.38,-24.90,-991.21,-181.64,1.52,-3.17,-0.49,-38.10,15.30,14.85,35.55,120.07,
06/01/2021,01:08:10.40,-11.23,-985.35,-172.85,2.93,-1.28,0.43,-36.45,15.45,15.45,35.55,120.07,
06/01/2021,01:08:10.40,-29.79,-986.33,-180.18,1.04,-2.13,-0.49,-36.90,15.30,14.85,35.46,120.07,
06/01/2021,01:08:10.41,-15.14,-990.23,-183.11,-0.67,-2.20,-0.91,-36.90,15.30,14.85,35.27,120.07,
06/01/2021,01:08:10.43,-20.02,-984.86,-167.48,-0.55,1.89,-0.49,-36.15,16.80,14.85,35.41,120.07,
06/01/2021,01:08:10.43,-36.62,-981.93,-184.08,-1.28,-2.87,-1.28,-36.15,16.80,14.85,35.36,120.07,
06/01/2021,01:08:10.44,-28.32,-975.59,-175.29,2.13,-1.28,-0.91,-36.90,14.55,13.05,35.46,120.07,
06/01/2021,01:08:10.44,-28.81,-990.23,-179.69,0.18,0.61,-1.16,-36.90,14.55,13.05,35.03,120.07,
06/01/2021,01:08:10.45,-16.11,-975.10,-186.52,0.30,-4.09,-0.85,-36.45,15.90,13.65,35.46,120.07,
06/01/2021,01:08:10.46,-20.51,-979.49,-174.32,-0.85,-0.55,3.17,-36.45,15.90,13.65,35.55,120.07,
06/01/2021,01:08:10.47,-22.46,-984.38,-184.57,0.12,-0.06,0.43,-37.35,16.05,14.85,35.36,120.07,
06/01/2021,01:08:10.48,-26.86,-981.45,-185.06,-0.73,-2.20,-2.01,-37.35,16.05,14.85,35.22,120.07,
06/01/2021,01:08:10.48,-26.37,-983.89,-180.66,-0.73,-1.52,-1.04,-37.35,16.05,14.85,35.55,120.07,
06/01/2021,01:08:10.49,-22.46,-1001.46,-189.94,2.20,-1.83,-1.59,-36.60,16.80,14.55,35.55,120.07,
06/01/2021,01:08:10.49,-23.93,-983.89,-185.55,0.30,-2.93,1.34,-36.60,16.80,14.55,35.41,120.07,
06/01/2021,01:08:10.51,-15.14,-986.82,-192.87,-0.73,-2.20,-0.24,-36.15,16.50,14.55,35.36,120.07,
06/01/2021,01:08:10.52,-29.79,-988.77,-187.99,-1.04,-2.26,2.68,-36.15,16.50,14.55,35.60,120.07,
06/01/2021,01:08:10.52,-20.51,-991.21,-184.57,-0.67,-2.80,2.44,-36.75,15.90,15.45,35.55,120.07,
06/01/2021,01:08:10.53,-39.55,-989.75,-179.20,1.28,-1.28,-2.13,-35.85,18.00,12.75,35.46,120.07,
06/01/2021,01:08:10.53,-33.69,-988.28,-183.11,1.95,-3.41,0.67,-35.85,18.00,12.75,35.36,120.07,
06/01/2021,01:08:10.55,-20.51,-989.75,-170.41,-0.06,-0.55,0.00,-35.70,16.20,12.90,35.36,120.07,
06/01/2021,01:08:10.55,-28.32,-983.40,-185.06,-0.30,0.67,-0.61,-35.70,16.20,12.90,35.60,120.07,
06/01/2021,01:08:10.56,-16.11,-980.47,-177.73,0.91,1.16,-2.62,-36.75,17.10,13.95,35.07,120.07,
06/01/2021,01:08:10.57,-28.32,-990.72,-173.34,0.91,-0.12,-1.04,-36.75,17.10,13.95,35.70,120.07,
06/01/2021,01:08:10.57,-31.74,-991.70,-173.83,0.12,-0.24,-1.04,-36.75,17.10,13.95,35.70,120.07,
06/01/2021,01:08:10.59,-16.60,-990.72,-181.64,1.10,0.24,-0.18,-36.90,16.50,16.05,35.36,120.07,
06/01/2021,01:08:10.59,-27.34,-988.28,-199.22,0.85,-2.56,-0.67,-36.90,16.50,16.05,35.27,120.07,
06/01/2021,01:08:10.60,-26.37,-988.28,-174.32,2.68,0.43,2.56,-36.15,16.50,13.50,35.55,120.07,
06/01/2021,01:08:10.61,-43.95,-987.30,-174.80,0.61,-0.49,0.18,-36.15,16.50,13.50,35.27,120.07,
06/01/2021,01:08:10.61,-27.83,-986.82,-183.11,2.01,0.18,-1.52,-35.55,16.80,14.25,35.22,120.07,
06/01/2021,01:08:10.62,-21.00,-982.42,-183.11,-1.28,-1.65,-0.37,-35.55,16.80,14.25,35.46,120.07,
06/01/2021,01:08:10.63,-31.25,-985.35,-184.57,0.61,0.43,-1.89,-37.65,16.05,14.55,35.17,120.07,
06/01/2021,01:08:10.64,-25.88,-985.35,-201.66,0.30,-0.79,1.16,-36.75,15.45,13.20,35.60,120.07,
06/01/2021,01:08:10.64,-25.88,-978.03,-189.94,0.98,0.12,3.41,-36.75,15.45,13.20,35.36,120.07,
06/01/2021,01:08:10.65,-18.55,-983.40,-175.29,0.43,-1.28,1.59,-35.55,18.45,13.80,35.41,120.07,
06/01/2021,01:08:10.66,-44.43,-979.49,-197.75,-1.10,0.30,-0.91,-35.55,18.45,13.80,35.46,120.07,
06/01/2021,01:08:10.67,-35.16,-989.26,-184.57,-0.06,1.83,3.72,-36.75,15.90,15.90,35.46,120.07,
06/01/2021,01:08:10.68,-26.86,-996.09,-178.71,-0.43,0.79,-0.91,-36.75,15.90,15.90,35.55,120.07,
06/01/2021,01:08:10.68,-37.60,-994.14,-191.41,-1.22,0.12,-0.55,-36.75,15.90,15.90,35.55,120.07,
06/01/2021,01:08:10.69,-28.81,-988.28,-188.96,-1.77,-1.52,-2.07,-35.70,15.90,12.90,35.27,120.07,
06/01/2021,01:08:10.69,-24.41,-988.77,-186.52,-2.26,1.46,-1.10,-35.70,15.90,12.90,35.17,120.07,
06/01/2021,01:08:10.71,-20.02,-986.33,-197.27,-2.99,-0.61,-2.32,-37.65,15.75,14.55,35.60,120.07,
06/01/2021,01:08:10.72,-20.02,-990.23,-189.45,-2.01,1.65,-0.91,-37.65,15.75,14.55,35.36,120.07,
06/01/2021,01:08:10.72,-26.86,-997.07,-176.27,0.18,2.07,-1.65,-36.15,16.80,13.50,35.36,120.07,
06/01/2021,01:08:10.73,-24.90,-986.82,-194.34,-3.17,-0.55,-2.13,-36.15,16.80,13.50,35.55,120.07,
06/01/2021,01:08:10.73,-9.77,-981.93,-185.06,-2.80,2.50,-0.85,-35.70,17.10,15.90,35.55,120.07,
06/01/2021,01:08:10.74,-27.34,-986.33,-188.96,-3.48,0.30,0.43,-36.00,17.85,13.20,35.07,120.07,
06/01/2021,01:08:10.75,-22.46,-995.12,-193.85,-1.77,1.16,-2.50,-36.00,17.85,13.20,35.36,120.07,
06/01/2021,01:08:10.76,-26.37,-996.58,-191.41,-2.99,-0.18,-0.06,-37.35,16.05,16.05,35.22,120.07,
06/01/2021,01:08:10.77,-13.18,-990.72,-194.82,-2.87,-0.43,-0.49,-37.35,16.05,16.05,35.55,120.07,
06/01/2021,01:08:10.77,-21.48,-982.42,-194.34,-2.07,0.73,0.55,-37.35,16.05,16.05,35.55,120.07,
06/01/2021,01:08:10.78,-29.30,-977.54,-186.52,0.12,-2.44,-0.61,-37.35,16.05,16.05,35.27,120.07,
06/01/2021,01:08:10.79,-8.79,-999.51,-184.57,-1.28,-0.61,2.68,-38.40,15.30,16.35,35.17,120.07,
06/01/2021,01:08:10.80,-20.02,-979.49,-177.25,0.73,0.18,-1.04,-38.40,15.30,16.35,35.17,120.07,
06/01/2021,01:08:10.81,-23.44,-998.05,-181.15,-0.73,1.89,0.49,-37.35,15.75,14.25,35.17,120.07,
06/01/2021,01:08:10.81,-29.30,-1001.46,-194.82,-1.34,-1.16,0.98,-35.85,16.80,14.25,35.17,120.07,
06/01/2021,01:08:10.82,-25.39,-986.33,-185.55,0.67,-1.40,0.18,-35.85,16.80,14.25,35.55,120.07,
06/01/2021,01:08:10.83,-26.86,-984.38,-173.83,-1.77,-0.98,1.04,-37.95,14.40,13.65,35.27,120.07,
06/01/2021,01:08:10.84,-0.98,-986.82,-164.55,-0.12,1.71,1.40,-37.95,14.40,13.65,35.27,120.07,
06/01/2021,01:08:10.84,-11.23,-985.35,-171.39,-2.01,1.46,-3.05,-37.95,14.40,13.65,35.36,120.07,
06/01/2021,01:08:10.85,-15.62,-984.38,-178.71,-0.30,2.44,-2.80,-37.95,14.40,13.65,35.36,120.07,
06/01/2021,01:08:10.86,-34.67,-975.59,-182.13,-0.55,1.46,-0.67,-35.85,15.75,14.85,34.93,120.08,
06/01/2021,01:08:10.89,-19.04,-980.47,-178.22,0.85,-1.10,-1.83,-38.55,13.95,15.90,35.36,120.07,
06/01/2021,01:08:10.91,-30.76,-984.38,-183.59,2.32,-0.73,-1.16,-38.40,14.85,15.60,35.55,120.07,
06/01/2021,01:08:10.92,-22.95,-974.61,-178.71,0.12,-2.07,0.61,-38.40,14.85,15.60,35.41,120.07,
06/01/2021,01:08:10.92,-3.42,-977.05,-183.59,0.61,-0.37,-0.73,-37.35,16.80,13.05,35.55,120.07,
06/01/2021,01:08:10.93,-44.92,-989.26,-181.15,-1.04,1.16,-0.61,-37.35,16.80,13.05,35.60,120.07,
06/01/2021,01:08:10.94,-25.39,-980.96,-186.52,1.28,-1.65,-2.56,-37.35,16.80,13.05,35.55,120.07,
06/01/2021,01:08:10.95,-26.86,-988.77,-196.29,-0.30,1.04,-0.91,-34.95,15.15,14.40,35.27,120.07,
06/01/2021,01:08:10.96,-25.88,-988.28,-173.83,4.02,-0.12,0.12,-34.95,15.15,14.40,35.55,120.07,
06/01/2021,01:08:10.96,-10.74,-986.82,-192.38,2.87,-0.06,-1.28,-36.00,16.20,13.95,35.27,120.07,
06/01/2021,01:08:10.97,-8.30,-982.42,-191.89,2.50,-1.46,-1.52,-36.00,16.20,13.95,35.55,120.07,
06/01/2021,01:08:10.98,-25.88,-984.86,-183.59,-0.55,0.00,-2.74,-36.60,17.55,13.05,35.70,120.07,
06/01/2021,01:08:10.99,-29.30,-985.35,-189.94,0.91,-0.79,-2.80,-34.95,17.10,15.45,35.55,120.07,
06/01/2021,01:08:11.00,-29.79,-990.23,-184.57,0.91,2.68,-0.67,-37.95,13.20,15.15,35.36,120.07,
06/01/2021,01:08:11.00,-30.27,-982.91,-185.55,2.07,1.22,0.49,-36.45,17.10,14.40,35.60,120.07,
06/01/2021,01:08:11.01,-25.39,-990.23,-195.31,2.07,-1.10,2.07,-36.45,17.10,14.40,35.55,120.07,
06/01/2021,01:08:11.01,-8.79,-974.12,-178.22,0.00,-2.01,0.12,-37.35,16.50,14.85,35.55,120.07,
06/01/2021,01:08:11.03,-15.62,-978.52,-187.01,0.43,1.04,0.85,-37.20,16.65,15.90,35.41,120.07,
06/01/2021,01:08:11.04,-20.51,-987.30,-173.83,0.37,1.77,-3.90,-37.20,15.90,16.95,35.36,120.07,
06/01/2021,01:08:11.04,-16.11,-979.00,-167.97,-0.49,-1.40,-1.34,-37.20,15.90,16.95,35.55,120.07,
06/01/2021,01:08:11.05,-31.25,-976.07,-168.95,1.16,0.61,-0.37,-37.20,15.90,16.95,35.07,120.07,
06/01/2021,01:08:11.05,-29.30,-973.63,-181.15,0.24,0.00,-2.74,-37.20,15.90,16.95,35.17,120.07,
06/01/2021,01:08:11.06,-22.95,-979.00,-177.25,0.55,1.34,-3.90,-35.25,16.20,13.20,35.36,120.07,
06/01/2021,01:08:11.08,-22.95,-980.47,-182.62,1.89,-1.04,1.34,-36.90,14.85,14.55,35.46,120.07,
06/01/2021,01:08:11.08,-13.67,-987.79,-177.73,0.06,0.55,0.06,-36.90,14.85,14.55,35.46,120.07,
06/01/2021,01:08:11.09,-25.39,-987.79,-177.73,1.28,0.55,-3.90,-36.45,17.40,15.90,35.55,120.07,
06/01/2021,01:08:11.09,-26.86,-980.96,-178.22,0.24,-0.30,-1.34,-36.45,17.40,15.90,35.22,120.07,
06/01/2021,01:08:11.10,-28.81,-977.05,-180.66,2.13,-0.06,-1.16,-35.25,15.90,14.40,35.55,120.07,
06/01/2021,01:08:11.11,-21.97,-987.79,-182.13,2.07,-0.61,0.73,-37.20,16.20,15.15,35.36,120.07,
06/01/2021,01:08:11.12,-33.69,-983.89,-188.48,1.10,0.12,-2.13,-37.20,14.40,15.45,35.55,120.07,
06/01/2021,01:08:11.13,-15.14,-993.65,-178.71,1.89,-2.68,0.85,-35.25,17.10,13.95,35.55,120.07,
06/01/2021,01:08:11.13,-32.71,-981.45,-176.76,2.62,-0.49,0.55,-35.25,17.10,13.95,35.22,120.07,
06/01/2021,01:08:11.14,-16.60,-987.30,-177.25,0.00,-0.79,-0.49,-35.25,17.10,13.95,35.46,120.07,
06/01/2021,01:08:11.15,-15.14,-978.52,-185.55,-0.24,-1.16,-0.79,-36.00,15.45,13.95,35.36,120.07,
06/01/2021,01:08:11.16,-12.21,-980.47,-168.46,0.00,0.67,-0.61,-36.00,15.45,13.95,35.27,120.07,
06/01/2021,01:08:11.16,-11.72,-984.86,-178.71,-0.06,0.24,-2.68,-36.00,15.45,13.95,35.55,120.07,
06/01/2021,01:08:11.17,-25.39,-983.89,-175.78,0.85,-0.91,0.61,-35.55,16.80,14.25,35.22,120.07,
06/01/2021,01:08:11.18,-16.11,-989.75,-183.11,1.65,0.79,-0.37,-34.80,16.80,14.55,35.36,120.07,
06/01/2021,01:08:11.18,-13.67,-990.72,-186.04,1.40,-0.30,-0.06,-34.80,16.80,14.55,35.46,120.07,
06/01/2021,01:08:11.20,-17.58,-1000.98,-187.01,2.56,0.43,1.10,-36.15,16.80,15.60,35.55,120.07,
06/01/2021,01:08:11.20,-26.37,-985.84,-181.64,-0.37,-1.34,-1.71,-36.15,16.80,15.60,35.22,120.07,
06/01/2021,01:08:11.21,-17.58,-992.68,-185.55,1.40,-1.46,-3.41,-36.15,17.25,13.50,35.22,120.07,
06/01/2021,01:08:11.21,-14.65,-993.65,-188.48,3.05,-0.43,0.85,-36.15,17.25,13.50,35.60,120.07,
06/01/2021,01:08:11.22,-7.81,-993.65,-186.52,0.49,0.67,1.04,-35.10,15.30,13.50,35.36,120.07,
06/01/2021,01:08:11.24,-28.81,-994.63,-190.92,-0.79,0.30,-2.50,-35.10,15.30,13.50,35.55,120.07,
06/01/2021,01:08:11.24,-5.37,-986.33,-200.20,1.16,0.79,-0.73,-35.85,16.50,15.60,35.36,120.07,
06/01/2021,01:08:11.25,-26.86,-987.30,-176.27,-0.67,-0.91,-1.77,-35.85,16.50,15.60,35.46,120.07,
06/01/2021,01:08:11.25,-23.93,-992.19,-178.22,0.73,0.24,1.28,-35.85,16.50,15.60,35.22,120.07,
06/01/2021,01:08:11.26,-13.18,-985.84,-177.25,-3.60,-1.83,0.00,-36.75,16.65,13.95,35.36,120.08,
06/01/2021,01:08:11.27,-17.58,-984.38,-164.06,-3.48,-0.98,-0.49,-34.95,17.40,13.20,35.55,120.07,
06/01/2021,01:08:11.28,-21.00,-990.23,-163.57,-1.71,1.46,0.12,-36.60,14.85,15.30,35.55,120.07,
06/01/2021,01:08:11.29,-10.25,-995.61,-159.67,-1.04,0.43,-0.24,-36.60,14.85,15.30,35.36,120.07,
06/01/2021,01:08:11.29,-13.67,-999.51,-164.55,-1.28,0.55,0.49,-36.15,16.50,14.25,35.46,120.08,
06/01/2021,01:08:11.30,-18.55,-994.14,-167.97,0.12,-2.93,-1.71,-35.85,17.25,14.55,35.60,120.08,
06/01/2021,01:08:11.30,-25.88,-982.91,-154.30,0.73,-0.18,0.85,-35.85,17.25,14.55,35.03,120.08,
06/01/2021,01:08:11.32,-19.04,-989.75,-168.46,1.89,1.10,1.34,-36.90,16.05,14.85,35.60,120.08,
06/01/2021,01:08:11.33,-32.71,-1007.81,-183.11,1.40,0.85,1.46,-36.90,16.05,14.85,35.46,120.08,
06/01/2021,01:08:11.33,-29.79,-996.58,-175.29,0.37,-0.06,-0.12,-36.45,16.65,13.20,35.27,120.08,
06/01/2021,01:08:11.34,-33.20,-1002.44,-176.76,-1.10,2.44,-1.83,-36.45,16.65,13.20,35.22,120.08,
06/01/2021,01:08:11.34,-39.06,-998.05,-183.59,0.91,0.55,-1.83,-36.45,16.65,13.20,35.60,120.08,
06/01/2021,01:08:11.36,-23.44,-993.16,-178.71,1.34,0.67,0.85,-36.75,16.65,13.20,35.46,120.08,
06/01/2021,01:08:11.36,-3.42,-985.84,-176.27,1.89,1.59,-2.13,-36.75,16.65,13.20,35.60,120.08,
06/01/2021,01:08:11.40,-34.67,-983.40,-172.36,0.24,-1.16,0.30,-37.95,16.20,14.70,35.46,120.07,
06/01/2021,01:08:11.41,-14.65,-976.56,-186.04,-0.79,0.18,-0.85,-36.60,14.55,16.80,35.55,120.07,
06/01/2021,01:08:11.42,1.46,-995.12,-162.60,1.34,0.49,-0.55,-36.60,14.55,16.80,35.46,120.07,
06/01/2021,01:08:11.43,-21.00,-991.21,-162.60,-0.67,-0.18,1.22,-37.20,17.85,13.65,35.46,120.07,
06/01/2021,01:08:11.44,-8.30,-986.82,-166.02,1.52,-1.22,-1.34,-37.20,17.85,13.65,35.55,120.07,
06/01/2021,01:08:11.44,-20.51,-1000.00,-161.62,-1.16,-1.71,-0.55,-37.50,16.65,14.70,35.55,120.07,
06/01/2021,01:08:11.45,-31.74,-968.26,-159.67,0.43,-1.71,-1.46,-37.50,16.65,14.70,35.46,120.07,
06/01/2021,01:08:11.46,-7.81,-983.40,-171.39,-0.30,-0.55,-3.66,-37.50,16.65,14.70,35.22,120.07,
06/01/2021,01:08:11.46,-28.32,-982.91,-170.90,0.91,-0.30,0.12,-36.15,16.50,13.80,35.36,120.07,
06/01/2021,01:08:11.48,-23.93,-994.14,-174.32,1.16,-0.12,-0.61,-35.85,18.45,15.30,35.55,120.07,
06/01/2021,01:08:11.48,-25.88,-980.96,-170.90,4.02,1.59,-2.20,-38.10,15.75,14.55,35.46,120.07,
06/01/2021,01:08:11.49,2.44,-999.51,-176.27,4.21,-0.67,0.55,-38.10,15.75,14.55,35.70,120.07,
06/01/2021,01:08:11.49,-28.81,-994.63,-168.46,2.93,-1.10,-1.34,-35.85,15.75,12.30,35.22,120.07,
06/01/2021,01:08:11.50,-12.21,-989.75,-170.41,0.73,2.50,-2.62,-35.10,17.25,13.80,35.36,120.07,
06/01/2021,01:08:11.52,-2.44,-989.75,-172.36,-0.12,-1.95,-0.67,-36.60,15.75,14.85,35.55,120.07,
06/01/2021,01:08:11.52,-16.60,-993.16,-174.80,2.01,0.12,0.91,-36.60,15.75,14.85,35.36,120.07,
06/01/2021,01:08:11.53,-26.37,-991.70,-174.80,1.52,-0.06,0.91,-36.60,15.75,14.85,35.36,120.07,
06/01/2021,01:08:11.53,-12.21,-991.70,-167.48,1.10,-0.73,0.37,-36.00,15.45,12.90,35.36,120.07,
06/01/2021,01:08:11.54,-24.90,-980.47,-168.46,4.45,-1.83,1.40,-36.00,15.45,12.90,35.60,120.07,
06/01/2021,01:08:11.55,-0.98,-993.65,-168.95,3.41,-3.23,1.04,-37.95,15.15,15.45,35.36,120.07,
06/01/2021,01:08:11.56,-11.72,-983.89,-155.76,1.95,0.24,-0.67,-37.95,15.15,15.45,35.46,120.07,
06/01/2021,01:08:11.57,-23.44,-990.72,-168.46,1.83,-0.67,-1.16,-37.35,16.50,14.55,35.27,120.07,
06/01/2021,01:08:11.57,-3.42,-985.84,-169.43,-0.61,0.30,-1.28,-36.75,16.65,14.70,35.07,120.07,
06/01/2021,01:08:11.58,-13.67,-988.28,-163.57,2.62,0.85,-1.95,-36.75,16.65,14.70,35.46,120.07,
06/01/2021,01:08:11.58,-20.02,-984.86,-163.57,2.32,-2.13,1.52,-35.85,16.05,14.25,35.70,120.07,
06/01/2021,01:08:11.60,-12.70,-989.75,-171.88,4.33,1.34,0.73,-34.95,18.15,13.20,35.36,120.07,
06/01/2021,01:08:11.61,-20.02,-991.21,-167.97,1.59,-1.59,0.18,-37.95,15.45,16.20,35.27,120.07,
06/01/2021,01:08:11.61,-13.18,-986.82,-166.02,1.34,1.71,-2.80,-37.95,15.45,16.20,35.36,120.07,
06/01/2021,01:08:11.62,-26.86,-994.14,-171.39,2.56,1.95,-2.99,-37.95,15.45,16.20,35.27,120.07,
06/01/2021,01:08:11.62,-8.30,-983.89,-160.64,2.62,-4.09,0.18,-35.85,16.50,13.80,35.22,120.07,
06/01/2021,01:08:11.64,-12.70,-999.02,-178.71,1.52,-1.77,-1.28,-35.85,16.50,13.80,35.60,120.07,
06/01/2021,01:08:11.64,-16.60,-987.79,-164.55,1.52,-0.85,-1.34,-38.85,16.50,15.30,35.07,120.07,
06/01/2021,01:08:11.65,-25.88,-992.19,-155.27,2.01,-0.30,0.61,-38.85,16.50,15.30,35.55,120.07,
06/01/2021,01:08:11.66,-9.77,-987.79,-178.22,2.44,1.16,-0.55,-36.75,16.65,12.90,35.55,120.07,
06/01/2021,01:08:11.66,-20.02,-988.77,-177.25,2.20,-1.52,-1.65,-36.75,16.65,12.90,35.27,120.08,
06/01/2021,01:08:11.68,-15.14,-989.75,-168.46,0.67,1.65,-2.32,-37.35,16.50,14.85,35.60,120.07,
06/01/2021,01:08:11.68,-35.64,-977.05,-171.88,3.23,-2.32,-0.98,-36.90,15.30,14.55,35.41,120.07,
06/01/2021,01:08:11.69,-13.67,-988.77,-171.39,0.91,-0.67,1.10,-36.90,15.30,14.55,35.27,120.07,
06/01/2021,01:08:11.70,-10.25,-988.28,-171.39,2.20,-0.24,0.24,-36.15,16.50,14.55,35.41,120.08,
06/01/2021,01:08:11.70,-17.58,-986.82,-160.64,2.74,1.34,-0.12,-36.15,16.50,14.55,35.36,120.08,
06/01/2021,01:08:11.71,-13.18,-995.61,-162.60,1.40,1.40,-2.44,-36.15,16.50,14.55,35.60,120.08,
06/01/2021,01:08:11.72,-10.74,-997.07,-168.95,2.50,-0.30,0.61,-34.35,16.05,14.55,35.36,120.08,
06/01/2021,01:08:11.73,-21.48,-994.14,-164.06,-1.34,1.77,-1.77,-34.35,16.05,14.55,35.27,120.08,
06/01/2021,01:08:11.73,-16.60,-997.07,-170.90,-1.46,-0.55,-0.67,-36.75,16.20,12.90,35.07,120.08,
06/01/2021,01:08:11.74,-18.55,-989.75,-167.97,-1.40,-0.18,-0.55,-36.75,16.20,12.90,35.27,120.08,
06/01/2021,01:08:11.75,-20.02,-986.33,-163.57,-0.49,-0.30,-2.93,-36.90,15.30,14.85,35.22,120.08,
06/01/2021,01:08:11.76,-20.02,-980.47,-162.60,-0.91,0.98,-2.50,-36.45,16.65,14.40,35.60,120.08,
06/01/2021,01:08:11.77,-20.51,-993.65,-161.62,0.43,1.59,-1.22,-39.75,15.45,18.75,35.36,120.08,
06/01/2021,01:08:11.77,-3.91,-989.75,-160.16,-0.12,3.78,-2.01,-36.90,18.00,13.80,35.55,120.08,
06/01/2021,01:08:11.78,-10.74,-1004.39,-161.62,0.73,-0.67,0.79,-36.90,18.00,13.80,35.22,120.08,
06/01/2021,01:08:11.79,-15.14,-984.86,-165.53,1.04,4.39,-1.89,-35.70,16.20,12.90,35.27,120.08,
06/01/2021,01:08:11.80,-3.91,-993.65,-155.27,0.00,-0.91,-1.40,-37.95,15.45,13.20,35.60,120.08,
06/01/2021,01:08:11.81,-15.14,-991.70,-164.55,0.37,0.06,-1.46,-38.55,15.90,15.90,35.36,120.08,
06/01/2021,01:08:11.81,-27.83,-998.05,-175.78,0.18,2.13,-2.13,-38.55,15.90,15.90,35.27,120.08,
06/01/2021,01:08:11.82,-17.09,-988.28,-172.85,2.32,0.12,-0.18,-38.55,15.90,15.90,35.36,120.08,
06/01/2021,01:08:11.82,-19.53,-991.21,-159.67,1.71,1.04,0.30,-38.55,15.90,15.90,35.41,120.08,
06/01/2021,01:08:11.83,-32.71,-993.16,-162.11,1.40,2.80,-2.01,-36.00,16.65,12.90,35.27,120.08,
06/01/2021,01:08:11.85,-27.34,-995.12,-167.97,0.67,0.67,0.00,-36.75,15.90,16.20,35.27,120.08,
06/01/2021,01:08:11.85,-23.93,-991.70,-161.62,0.61,-0.18,-0.43,-36.75,15.90,16.20,35.36,120.08,
06/01/2021,01:08:11.86,-29.79,-999.51,-164.06,1.89,2.01,-1.28,-35.25,16.20,15.15,35.22,120.08,
06/01/2021,01:08:11.86,-15.14,-1000.00,-158.69,1.52,1.16,-0.18,-35.25,16.20,15.15,35.07,120.08,
06/01/2021,01:08:11.87,-17.09,-985.84,-154.30,-1.10,-0.61,-1.46,-35.10,16.80,14.25,35.07,120.08,
06/01/2021,01:08:11.91,-14.16,-992.68,-147.95,-0.30,1.65,-2.80,-39.00,15.45,16.20,35.17,120.07,
06/01/2021,01:08:11.93,-10.74,-985.84,-166.02,-1.40,1.28,-0.06,-36.45,15.45,14.40,35.36,120.07,
06/01/2021,01:08:11.93,-12.21,-1002.93,-153.81,1.34,2.44,1.40,-36.45,15.45,14.40,35.60,120.07,
06/01/2021,01:08:11.94,-15.62,-1003.42,-152.83,0.79,1.04,0.91,-37.20,17.85,14.40,35.27,120.07,
06/01/2021,01:08:11.94,-15.14,-981.45,-165.53,-0.79,1.89,0.85,-37.20,17.85,14.40,35.07,120.07,
06/01/2021,01:08:11.96,-10.25,-997.56,-153.32,0.37,1.46,-0.79,-38.55,15.15,13.65,35.60,120.07,
06/01/2021,01:08:11.96,-8.30,-984.86,-162.60,0.18,2.38,-2.01,-38.55,15.15,13.65,35.60,120.07,
06/01/2021,01:08:11.97,-18.07,-994.63,-169.92,-0.98,-0.55,0.43,-36.75,16.20,16.20,35.36,120.07,
06/01/2021,01:08:11.98,-0.49,-986.33,-163.57,0.98,-0.49,1.28,-36.75,16.20,16.20,35.22,120.07,
06/01/2021,01:08:11.98,-19.53,-990.23,-155.27,-0.43,1.77,0.37,-36.15,16.50,14.55,35.36,120.07,
06/01/2021,01:08:12.00,-15.14,-991.21,-154.79,-1.16,1.71,-0.49,-36.45,17.10,13.95,35.55,120.07,
06/01/2021,01:08:12.00,-11.23,-980.47,-165.04,-1.04,0.18,-1.40,-36.45,17.10,13.95,35.41,120.07,
06/01/2021,01:08:12.01,-3.42,-992.68,-152.34,0.67,0.85,1.95,-35.85,16.50,13.80,35.22,120.07,
06/01/2021,01:08:12.01,-9.77,-989.26,-165.53,-1.16,1.46,-0.06,-35.85,16.50,13.80,35.27,120.07,
06/01/2021,01:08:12.02,-18.55,-989.26,-159.67,-0.55,2.20,-0.12,-35.85,16.50,13.80,35.75,120.07,
06/01/2021,01:08:12.03,-17.58,-987.30,-142.58,-1.40,1.71,-3.66,-35.85,16.50,13.80,35.46,120.07,
06/01/2021,01:08:12.04,-14.65,-978.52,-159.67,0.73,3.54,-1.10,-36.15,13.80,15.60,35.36,120.07,
06/01/2021,01:08:12.05,-16.60,-987.79,-169.92,-1.04,0.12,-0.73,-37.65,16.80,16.05,35.36,120.07,
06/01/2021,01:08:12.05,-18.55,-979.98,-164.55,-0.73,1.34,-1.16,-37.65,16.80,16.05,35.27,120.07,
06/01/2021,01:08:12.06,-10.74,-983.89,-165.53,1.16,2.01,1.40,-36.90,16.80,13.05,35.27,120.07,
06/01/2021,01:08:12.07,-12.70,-993.65,-153.32,-1.65,2.68,0.30,-36.90,16.80,13.05,35.36,120.08,
06/01/2021,01:08:12.08,-4.88,-985.84,-166.50,-2.07,-0.98,-0.43,-38.10,17.55,16.05,35.22,120.07,
06/01/2021,01:08:12.09,-10.25,-985.35,-165.04,-0.43,1.71,-3.66,-38.10,17.55,16.05,35.60,120.07,
06/01/2021,01:08:12.09,-23.44,-1003.42,-167.48,-0.79,1.10,-2.01,-35.55,16.05,13.50,35.70,120.07,
06/01/2021,01:08:12.10,-4.88,-999.02,-163.57,-2.44,2.26,-2.56,-35.55,16.05,13.50,35.07,120.08,
06/01/2021,01:08:12.10,-9.77,-987.79,-163.09,-0.30,1.10,0.85,-35.25,17.40,14.40,35.22,120.08,
06/01/2021,01:08:12.12,-12.70,-991.70,-161.13,-0.98,0.61,-0.79,-37.95,16.20,16.50,35.22,120.07,
06/01/2021,01:08:12.13,-11.72,-976.56,-172.36,-0.55,2.87,-2.44,-37.95,16.20,16.50,35.36,120.07,
06/01/2021,01:08:12.13,-4.88,-989.75,-161.13,-0.18,0.06,1.65,-37.95,16.20,16.50,35.36,120.08,
06/01/2021,01:08:12.14,-12.21,-987.79,-165.04,-1.22,2.13,-0.61,-37.95,16.20,16.50,35.46,120.08,
06/01/2021,01:08:12.14,-26.37,-995.61,-155.76,-0.55,-0.61,0.61,-35.85,16.80,14.55,35.55,120.08,
06/01/2021,01:08:12.15,-6.35,-994.14,-147.95,0.37,0.49,-1.65,-35.85,16.80,14.55,35.46,120.08,
06/01/2021,01:08:12.16,-7.32,-984.86,-163.09,-1.22,2.68,-0.55,-37.65,15.75,16.35,35.36,120.08,
06/01/2021,01:08:12.17,-14.65,-988.77,-159.67,1.59,2.87,-1.65,-35.85,15.30,16.05,35.70,120.08,
06/01/2021,01:08:12.18,-8.79,-1003.91,-165.53,0.67,0.91,-1.28,-35.85,15.30,16.05,35.17,120.08,
06/01/2021,01:08:12.18,-4.88,-1000.00,-169.43,-1.34,2.13,0.37,-36.00,16.65,13.20,35.36,120.08,
06/01/2021,01:08:12.19,-14.16,-999.51,-156.25,-0.98,1.04,-1.22,-36.00,16.65,13.20,35.36,120.08,
06/01/2021,01:08:12.20,-12.21,-985.84,-171.39,-0.06,2.87,-0.30,-35.55,16.50,13.80,35.22,120.08,
06/01/2021,01:08:12.21,-14.16,-1000.98,-158.69,-1.83,1.95,-0.18,-35.55,16.50,13.80,35.22,120.08,
06/01/2021,01:08:12.22,-21.00,-995.61,-163.57,-2.20,1.28,-1.04,-36.45,18.15,15.45,35.36,120.08,
06/01/2021,01:08:12.22,-5.37,-992.68,-163.09,-1.83,0.61,-0.67,-36.45,18.15,15.45,35.36,120.08,
06/01/2021,01:08:12.23,-20.51,-990.23,-166.02,1.04,0.00,-2.26,-36.45,18.15,15.45,35.55,120.08,
06/01/2021,01:08:12.24,0.49,-988.77,-160.64,-0.98,2.38,-2.62,-38.55,15.15,14.70,35.07,120.08,
06/01/2021,01:08:12.25,-16.11,-984.86,-165.04,0.37,-0.67,0.06,-38.55,15.15,14.70,35.46,120.08,
06/01/2021,01:08:12.25,-13.67,-984.86,-156.74,-0.49,-0.43,1.77,-36.00,15.45,13.20,35.22,120.08,
06/01/2021,01:08:12.26,-17.09,-986.82,-170.41,-0.18,0.91,0.24,-36.00,15.45,13.20,35.46,120.08,
06/01/2021,01:08:12.27,-6.84,-1000.00,-161.62,-1.95,1.65,-2.62,-36.15,16.80,13.50,35.22,120.08,
06/01/2021,01:08:12.27,-4.88,-992.19,-160.64,-2.62,0.12,0.37,-35.10,16.80,14.85,35.36,120.08,
06/01/2021,01:08:12.29,3.91,-986.82,-162.11,-0.30,2.93,-1.04,-36.15,16.05,14.25,35.55,120.08,
06/01/2021,01:08:12.29,7.81,-992.19,-164.55,0.79,1.16,-1.28,-36.15,16.05,14.25,35.22,120.08,
06/01/2021,01:08:12.30,-7.81,-974.61,-177.73,-1.52,1.34,-2.26,-36.15,16.05,14.25,35.46,120.08,
06/01/2021,01:08:12.30,-13.67,-999.51,-166.99,-1.34,-0.85,-2.38,-34.50,16.20,13.65,35.27,120.08,
06/01/2021,01:08:12.31,-6.35,-988.28,-165.53,0.37,1.28,0.85,-34.50,16.20,13.65,35.79,120.08,
06/01/2021,01:08:12.33,1.95,-973.63,-163.57,0.49,0.79,0.73,-36.90,16.50,14.85,35.27,120.08,
06/01/2021,01:08:12.33,-7.81,-968.75,-170.90,-1.22,0.91,-0.18,-36.90,16.50,14.85,35.46,120.08,
06/01/2021,01:08:12.34,0.98,-989.75,-163.57,1.40,2.50,0.00,-36.90,15.30,14.85,35.60,120.08,
06/01/2021,01:08:12.34,1.95,-983.89,-154.79,-1.59,-1.65,-2.56,-37.35,16.05,14.85,35.36,120.08,
06/01/2021,01:08:12.35,0.49,-989.26,-175.78,-0.12,0.06,-0.49,-37.35,16.05,14.85,35.46,120.08,
06/01/2021,01:08:12.36,0.98,-992.19,-176.27,-0.98,1.46,-1.52,-36.75,15.90,14.40,35.60,120.08,
06/01/2021,01:08:12.37,-6.35,-987.30,-180.18,-0.12,0.79,-0.73,-36.75,15.90,14.40,35.46,120.08,
06/01/2021,01:08:12.38,-6.35,-997.56,-165.53,0.37,1.89,-2.93,-37.95,16.65,13.65,35.27,120.08,
06/01/2021,01:08:12.38,-4.39,-1005.37,-168.46,-1.89,2.07,-0.55,-37.95,16.65,13.65,35.46,120.08,
06/01/2021,01:08:12.39,-9.77,-998.54,-172.85,1.52,0.24,-0.55,-37.95,16.65,13.65,35.22,120.08,
06/01/2021,01:08:12.42,-27.34,-979.98,-165.04,-1.34,0.43,0.37,-38.40,15.30,16.35,35.07,120.08,
06/01/2021,01:08:12.44,2.93,-993.16,-175.29,1.95,-1.59,2.50,-36.15,15.75,14.85,35.36,120.07,
06/01/2021,01:08:12.45,-3.91,-997.56,-164.55,0.30,2.01,-0.79,-36.15,15.75,14.85,35.36,120.07,
06/01/2021,01:08:12.46,-3.42,-1000.98,-177.73,0.98,2.32,0.43,-36.75,17.40,13.95,35.27,120.07,
06/01/2021,01:08:12.46,-12.21,-984.38,-163.57,0.24,-0.12,2.26,-36.75,17.40,13.95,35.41,120.08,
06/01/2021,01:08:12.47,-12.70,-981.93,-160.64,-0.49,0.91,-0.67,-35.10,16.05,13.05,35.22,120.08,
06/01/2021,01:08:12.48,-16.11,-990.72,-183.11,-1.89,-0.91,-1.16,-35.55,16.50,14.25,35.55,120.07,
06/01/2021,01:08:12.49,-13.67,-994.14,-172.85,0.18,-0.98,2.07,-36.15,15.75,15.60,35.55,120.07,
06/01/2021,01:08:12.50,-17.09,-991.70,-161.62,-1.22,-0.79,-1.16,-36.15,15.75,15.60,35.46,120.07,
06/01/2021,01:08:12.50,-13.67,-991.21,-167.48,-0.06,0.55,0.24,-36.15,15.75,15.60,35.27,120.08,
06/01/2021,01:08:12.51,-11.72,-986.33,-167.97,-1.34,-0.73,-0.85,-36.15,18.00,14.55,35.70,120.08,
06/01/2021,01:08:12.52,-16.11,-982.91,-164.06,-0.24,-1.28,1.16,-36.15,18.00,14.55,35.55,120.07,
06/01/2021,01:08:12.53,-18.55,-992.19,-161.13,-0.30,-0.91,-0.43,-36.90,14.85,17.10,35.55,120.07,
06/01/2021,01:08:12.54,-17.58,-995.12,-163.09,0.18,0.98,1.16,-36.90,14.85,17.10,35.36,120.08,
06/01/2021,01:08:12.54,2.93,-993.16,-170.90,-2.99,-0.18,0.30,-35.25,18.15,13.95,35.55,120.08,
06/01/2021,01:08:12.55,-23.93,-992.68,-176.76,-2.50,0.06,-0.73,-36.90,15.30,13.80,35.22,120.08,
06/01/2021,01:08:12.55,5.86,-985.84,-156.25,-1.65,-1.77,2.68,-36.90,15.30,13.80,35.22,120.08,
06/01/2021,01:08:12.57,-26.37,-987.79,-172.36,0.55,-0.24,-0.12,-38.25,15.15,15.15,35.46,120.08,
06/01/2021,01:08:12.57,-20.51,-987.30,-169.43,-0.18,0.61,-1.28,-38.25,15.15,15.15,35.55,120.08,
06/01/2021,01:08:12.58,-10.74,-985.84,-160.64,0.55,0.06,0.85,-36.60,17.55,14.85,35.46,120.08,
06/01/2021,01:08:12.59,0.00,-991.21,-164.55,-1.10,1.16,1.46,-36.60,17.55,14.85,35.36,120.08,
06/01/2021,01:08:12.59,-13.18,-985.35,-173.34,0.73,0.67,-1.34,-36.60,17.55,14.85,35.55,120.08,
06/01/2021,01:08:12.61,-0.98,-994.63,-156.74,-1.04,0.37,-2.13,-36.60,16.80,14.55,35.46,120.08,
06/01/2021,01:08:12.61,-2.93,-994.14,-165.04,-0.61,-2.13,2.13,-36.60,16.80,14.55,35.55,120.08,
06/01/2021,01:08:12.62,-13.67,-988.28,-165.04,-0.30,1.28,0.12,-35.70,17.85,14.70,35.46,120.08,
06/01/2021,01:08:12.62,-13.18,-990.72,-169.92,-1.89,-0.91,-1.52,-35.70,17.85,14.70,35.41,120.08,
06/01/2021,01:08:12.63,-12.21,-996.58,-166.99,-1.40,0.73,0.12,-37.20,17.10,15.15,35.55,120.08,
06/01/2021,01:08:12.65,-21.97,-982.42,-170.90,-1.71,-0.12,-0.55,-34.80,16.50,14.55,35.55,120.08,
06/01/2021,01:08:12.65,-1.46,-988.28,-166.99,-0.24,0.24,-0.55,-38.10,14.55,15.60,35.36,120.08,
06/01/2021,01:08:12.66,-19.53,-988.28,-160.64,-2.32,-1.22,-1.16,-36.60,15.30,14.25,35.46,120.08,
06/01/2021,01:08:12.66,-4.39,-993.65,-166.02,-2.56,-0.12,-1.22,-36.60,15.30,14.25,35.60,120.08,
06/01/2021,01:08:12.67,-17.09,-991.70,-170.41,2.07,-1.46,2.87,-35.85,16.05,13.50,35.27,120.08,
06/01/2021,01:08:12.67,-12.21,-994.63,-173.83,1.89,0.49,1.59,-35.85,16.05,13.50,35.07,120.08,
06/01/2021,01:08:12.69,0.49,-998.54,-184.57,0.91,-1.10,-0.91,-38.55,18.15,15.90,35.55,120.08,
06/01/2021,01:08:12.70,-18.07,-986.82,-178.22,0.91,-1.71,-1.52,-38.55,18.15,15.90,35.17,120.08,
06/01/2021,01:08:12.70,-8.79,-1002.44,-179.69,0.49,1.77,1.65,-38.55,18.15,15.90,35.55,120.08,
06/01/2021,01:08:12.71,-16.60,-995.12,-167.48,-1.10,0.30,-1.34,-38.55,18.15,15.90,35.36,120.08,
06/01/2021,01:08:12.71,-7.81,-996.09,-160.16,-2.20,0.67,-0.79,-36.60,17.25,14.25,35.75,120.08,
06/01/2021,01:08:12.73,-15.14,-988.28,-150.39,0.06,0.79,-0.61,-38.40,16.05,14.55,35.07,120.08,
06/01/2021,01:08:12.73,-10.25,-976.07,-156.25,-1.89,-0.12,-0.30,-38.40,16.05,14.55,35.55,120.08,
06/01/2021,01:08:12.74,-7.32,-982.91,-163.09,2.13,0.30,2.68,-38.55,17.10,14.70,35.60,120.08,
06/01/2021,01:08:12.75,-8.79,-994.14,-160.16,1.46,2.07,1.65,-38.55,17.10,14.70,35.55,120.08,
06/01/2021,01:08:12.75,-10.25,-991.21,-180.66,2.44,-1.77,0.91,-36.75,16.20,13.95,35.36,120.08,
06/01/2021,01:08:12.77,-10.25,-979.49,-176.76,0.55,0.55,-0.79,-35.55,16.05,13.50,35.55,120.08,
06/01/2021,01:08:12.77,-9.28,-995.61,-160.64,1.34,0.91,-0.49,-35.55,16.05,13.50,35.27,120.08,
06/01/2021,01:08:12.78,-6.84,-1005.86,-166.99,1.52,1.28,0.24,-35.55,16.05,13.50,35.46,120.08,
06/01/2021,01:08:12.78,-11.72,-990.23,-166.02,0.85,0.91,-1.22,-36.15,18.45,15.30,35.27,120.08,
06/01/2021,01:08:12.79,-10.25,-997.07,-186.04,1.83,2.68,-0.30,-36.15,18.45,15.30,35.36,120.08,
06/01/2021,01:08:12.80,-11.23,-997.56,-162.11,2.32,1.22,-1.16,-36.15,18.45,15.30,35.22,120.08,
06/01/2021,01:08:12.81,-27.83,-995.12,-156.25,2.62,0.18,-0.67,-37.50,14.70,15.45,35.27,120.08,
06/01/2021,01:08:12.82,-16.60,-978.52,-174.32,2.26,-1.52,1.28,-37.50,14.70,15.45,35.27,120.08,
06/01/2021,01:08:12.82,2.93,-979.00,-154.30,1.89,2.26,-1.22,-38.10,17.55,14.55,35.27,120.08,
06/01/2021,01:08:12.83,-12.70,-985.35,-157.71,1.77,2.07,-0.37,-38.10,17.55,14.55,35.55,120.08,
06/01/2021,01:08:12.84,-3.91,-992.19,-164.55,1.22,0.79,-0.79,-35.10,16.50,13.50,35.22,120.08,
06/01/2021,01:08:12.85,-9.77,-977.05,-154.79,1.52,-1.52,-0.73,-37.95,15.15,15.45,35.55,120.08,
06/01/2021,01:08:12.86,-17.58,-988.28,-160.64,2.50,0.79,0.91,-37.95,15.15,15.45,35.36,120.08,
06/01/2021,01:08:12.86,-13.18,-988.77,-173.34,4.02,0.73,0.49,-36.15,16.80,13.50,35.27,120.08,
06/01/2021,01:08:12.87,-6.84,-991.21,-166.99,2.07,-0.49,1.95,-36.15,16.80,13.50,35.27,120.08,
06/01/2021,01:08:12.87,-21.97,-986.33,-170.41,3.35,-0.91,2.20,-36.45,18.15,13.65,35.55,120.08,
06/01/2021,01:08:12.89,-20.51,-989.26,-150.39,1.10,-0.43,0.18,-36.45,18.15,13.65,35.36,120.08,
06/01/2021,01:08:12.90,-3.91,-985.35,-140.62,1.16,0.49,-1.59,-38.25,15.45,16.95,35.60,120.08,
06/01/2021,01:08:12.95,-5.86,-981.45,-158.69,0.85,0.43,0.06,-38.40,16.50,15.30,35.07,120.07,
06/01/2021,01:08:12.96,-12.21,-991.21,-152.34,-0.43,1.65,-1.28,-38.10,15.75,15.30,35.22,120.07,
06/01/2021,01:08:12.97,-8.30,-990.72,-159.67,1.46,0.12,-2.38,-38.10,15.75,15.30,35.60,120.07,
06/01/2021,01:08:12.97,-21.48,-984.38,-152.83,3.72,-0.18,1.77,-38.10,15.75,15.30,35.55,120.07,
06/01/2021,01:08:12.99,-15.62,-979.98,-161.13,2.13,2.56,0.61,-36.15,16.05,13.05,35.60,120.07,
06/01/2021,01:08:12.99,-13.18,-986.82,-157.23,3.17,0.00,2.68,-36.15,16.05,13.05,35.75,120.07,
06/01/2021,01:08:13.00,-18.07,-989.75,-161.13,1.95,-1.28,-1.10,-36.15,16.05,13.05,35.36,120.07,
06/01/2021,01:08:13.01,-13.67,-994.63,-166.50,0.18,2.87,-1.59,-35.55,17.55,14.55,35.75,120.07,
06/01/2021,01:08:13.01,2.44,-992.68,-145.02,1.89,-0.37,-0.06,-35.55,17.55,14.55,35.22,120.07,
06/01/2021,01:08:13.03,-2.93,-989.26,-153.32,0.37,-0.73,-1.40,-36.90,16.80,15.30,35.22,120.07,
06/01/2021,01:08:13.03,-15.62,-982.91,-158.69,0.43,-0.55,1.71,-38.40,16.05,16.05,35.27,120.07,
06/01/2021,01:08:13.04,-20.02,-999.51,-159.67,0.06,-1.40,-1.71,-38.40,16.05,16.05,35.36,120.07,
06/01/2021,01:08:13.05,1.95,-997.07,-166.50,3.66,1.46,1.40,-35.85,17.25,13.80,35.36,120.07,
06/01/2021,01:08:13.05,-4.39,-988.28,-156.25,1.52,-1.10,-1.16,-35.85,17.25,13.80,35.27,120.07,
06/01/2021,01:08:13.06,-28.81,-992.19,-151.37,2.01,-1.28,-0.73,-35.55,16.50,13.80,35.36,120.08,
06/01/2021,01:08:13.07,-10.25,-997.07,-155.27,-1.22,3.05,-2.20,-35.55,16.50,13.80,35.46,120.07,
06/01/2021,01:08:13.08,-14.16,-992.19,-172.85,1.71,-0.24,2.13,-36.45,14.70,15.90,35.46,120.07,
06/01/2021,01:08:13.08,-11.23,-1006.84,-150.88,2.56,-0.18,-0.67,-36.45,14.70,15.90,35.17,120.07,
06/01/2021,01:08:13.09,-16.60,-989.26,-146.48,0.49,-1.04,0.85,-36.45,14.70,15.90,35.36,120.08,
06/01/2021,01:08:13.10,-19.53,-995.61,-154.79,2.50,-0.85,0.30,-36.45,16.20,14.70,35.36,120.08,
06/01/2021,01:08:13.11,-20.51,-999.02,-162.11,2.50,-0.91,-1.28,-37.35,16.05,14.55,35.60,120.07,
06/01/2021,01:08:13.12,-2.44,-999.51,-152.34,0.43,0.24,-0.06,-37.95,14.70,16.95,35.46,120.07,
06/01/2021,01:08:13.12,-10.25,-1007.32,-166.99,-0.85,0.37,-0.30,-37.95,14.70,16.95,35.27,120.08,
06/01/2021,01:08:13.13,0.00,-1004.39,-161.62,2.01,-0.12,-3.23,-36.00,15.90,15.45,35.55,120.08,
06/01/2021,01:08:13.13,-13.18,-1003.91,-158.20,3.11,0.00,-1.65,-36.60,16.05,12.75,35.36,120.08,
06/01/2021,01:08:13.15,-6.84,-992.19,-153.81,3.78,1.28,1.34,-37.65,14.10,15.30,35.17,120.08,
06/01/2021,01:08:13.16,-3.42,-992.68,-168.46,3.11,0.55,-2.13,-37.65,14.10,15.30,35.60,120.08,
06/01/2021,01:08:13.16,1.46,-1001.95,-168.46,2.74,-1.40,0.61,-37.65,14.10,15.30,35.60,120.08,
06/01/2021,01:08:13.17,-18.07,-990.72,-156.74,3.23,0.43,0.43,-35.85,17.55,14.55,35.22,120.08,
06/01/2021,01:08:13.17,-8.79,-986.33,-150.39,2.44,0.49,-0.79,-35.85,17.55,14.55,35.60,120.08,
06/01/2021,01:08:13.18,-9.77,-988.77,-164.06,2.99,0.61,2.62,-35.85,17.55,14.55,35.70,120.08,
06/01/2021,01:08:13.19,-17.09,-986.33,-154.30,0.00,2.01,0.91,-35.10,16.50,14.25,35.55,120.08,
06/01/2021,01:08:13.20,-26.37,-994.63,-165.04,0.67,-1.28,0.79,-37.50,16.65,16.20,35.22,120.08,
06/01/2021,01:08:13.21,-23.93,-987.79,-153.81,1.95,0.30,0.79,-35.85,15.75,14.85,35.27,120.08,
06/01/2021,01:08:13.21,-10.74,-984.86,-160.16,0.49,0.43,-0.98,-35.85,15.75,14.85,35.60,120.08,
06/01/2021,01:08:13.22,-20.02,-984.38,-150.39,1.04,0.06,-0.12,-36.45,16.20,14.70,35.27,120.08,
06/01/2021,01:08:13.23,-21.00,-996.09,-149.41,0.79,-0.79,-2.01,-36.75,17.40,13.20,35.27,120.08,
06/01/2021,01:08:13.24,-20.02,-993.16,-143.55,0.85,0.12,-1.46,-38.55,13.50,18.45,35.55,120.08,
06/01/2021,01:08:13.25,-16.60,-982.42,-146.97,-0.24,-0.61,0.43,-38.55,13.50,18.45,35.36,120.08,
06/01/2021,01:08:13.25,-3.91,-991.70,-159.18,0.18,1.04,-0.30,-38.55,13.50,18.45,35.36,120.08,
06/01/2021,01:08:13.26,-9.28,-996.58,-156.25,0.67,1.28,-2.01,-36.00,16.65,14.70,35.22,120.08,
06/01/2021,01:08:13.27,-6.84,-998.54,-141.60,1.22,-1.46,-1.10,-36.00,16.65,14.70,35.55,120.08,
06/01/2021,01:08:13.28,-8.79,-988.28,-146.97,-0.12,-0.55,0.43,-36.90,18.75,17.10,35.22,120.08,
06/01/2021,01:08:13.28,-8.79,-987.30,-147.95,0.61,0.06,-1.65,-36.90,18.75,17.10,35.22,120.08,
06/01/2021,01:08:13.29,-16.60,-999.51,-149.41,1.59,-0.37,2.26,-36.90,18.75,17.10,35.27,120.08,
06/01/2021,01:08:13.30,-15.62,-989.75,-150.39,0.73,2.62,1.46,-36.90,18.75,17.10,35.22,120.08,
06/01/2021,01:08:13.30,-0.98,-999.02,-146.48,1.65,0.30,-1.10,-36.75,17.10,14.70,35.46,120.08,
06/01/2021,01:08:13.32,-25.39,-998.05,-156.25,0.00,0.12,0.61,-37.35,16.80,15.60,35.07,120.08,
06/01/2021,01:08:13.32,-6.35,-990.23,-159.67,1.71,2.32,1.52,-37.35,16.80,15.60,35.55,120.08,
06/01/2021,01:08:13.33,-8.79,-1000.00,-146.48,2.01,1.22,0.79,-36.45,17.85,15.15,35.55,120.08,
06/01/2021,01:08:13.33,-11.72,-991.70,-162.60,0.24,0.61,-0.73,-36.45,17.85,15.15,35.22,120.08,
06/01/2021,01:08:13.34,-10.25,-1002.93,-172.85,1.77,0.18,-0.91,-36.45,16.65,13.95,35.70,120.08,
06/01/2021,01:08:13.36,-11.23,-997.07,-160.64,-0.24,1.89,-1.59,-35.25,16.20,13.65,35.27,120.08,
06/01/2021,01:08:13.36,-8.30,-994.14,-152.34,0.67,1.65,0.24,-35.25,16.20,13.65,35.36,120.08,
06/01/2021,01:08:13.37,-7.32,-994.63,-163.09,-1.10,1.34,-0.06,-35.25,17.40,13.65,35.22,120.08,
06/01/2021,01:08:13.37,-11.23,-982.91,-162.11,0.30,0.55,-0.30,-35.25,17.40,15.15,35.55,120.08,
06/01/2021,01:08:13.38,-3.91,-987.79,-140.14,-0.37,-1.52,2.99,-35.25,17.40,15.15,35.60,120.08,
06/01/2021,01:08:13.39,-0.98,-979.00,-143.55,-0.73,-0.06,4.21,-34.35,15.75,15.60,35.36,120.08,
06/01/2021,01:08:13.40,-13.67,-977.05,-146.97,0.49,2.68,2.87,-39.30,18.15,17.25,35.41,120.08,
06/01/2021,01:08:13.43,-9.77,-990.23,-157.23,-1.95,2.13,-0.91,-37.65,16.50,15.30,35.36,120.08,
06/01/2021,01:08:13.45,-9.28,-988.77,-146.00,-2.38,-0.06,-0.37,-37.35,18.00,14.85,35.55,120.07,
06/01/2021,01:08:13.45,-15.14,-998.05,-144.04,-1.95,3.78,-0.06,-37.35,18.00,14.85,35.36,120.07,
06/01/2021,01:08:13.46,-10.25,-997.56,-150.39,-0.30,2.74,1.04,-35.25,17.85,15.15,35.17,120.08,
06/01/2021,01:08:13.48,-11.23,-988.77,-144.04,-2.01,2.62,0.61,-35.25,17.85,15.15,35.55,120.07,
06/01/2021,01:08:13.48,-3.42,-997.56,-143.07,-0.98,0.06,1.71,-39.60,18.75,16.80,35.36,120.07,
06/01/2021,01:08:13.49,-12.21,-998.54,-148.44,-0.67,1.40,-1.04,-39.60,18.75,16.80,35.75,120.07,
06/01/2021,01:08:13.49,-8.30,-981.45,-157.23,-1.59,2.38,-0.55,-35.85,18.00,14.55,35.36,120.08,
06/01/2021,01:08:13.50,-14.65,-988.77,-157.71,-0.73,-2.38,0.30,-35.85,18.00,14.55,35.55,120.08,
06/01/2021,01:08:13.51,-17.58,-1000.98,-162.60,0.12,2.99,-3.11,-36.60,16.80,15.30,35.60,120.07,
06/01/2021,01:08:13.52,-27.34,-1007.32,-161.62,-0.79,1.95,0.18,-37.20,16.65,16.50,35.55,120.08,
06/01/2021,01:08:13.53,-21.48,-986.33,-151.86,1.04,0.98,-0.91,-37.20,16.65,16.50,35.36,120.08,
06/01/2021,01:08:13.53,-22.46,-1000.98,-156.74,-0.12,0.91,0.00,-36.45,17.85,15.15,35.22,120.08,
06/01/2021,01:08:13.54,-14.16,-1000.00,-163.09,0.73,1.40,0.30,-36.45,17.85,15.15,35.60,120.08,
06/01/2021,01:08:13.55,-15.62,-988.28,-148.93,0.73,-0.43,2.62,-37.65,15.75,16.05,35.17,120.08,
06/01/2021,01:08:13.56,-5.86,-981.45,-149.90,1.28,1.46,1.52,-37.65,15.75,16.05,35.55,120.08,
06/01/2021,01:08:13.56,-15.62,-985.84,-152.83,1.22,-0.55,0.55,-37.65,15.75,16.05,35.60,120.08,
06/01/2021,01:08:13.57,-10.25,-997.07,-157.23,0.49,0.91,0.73,-35.55,16.50,14.55,35.07,120.08,
06/01/2021,01:08:13.58,-13.18,-1008.79,-146.00,-2.32,3.72,-0.12,-35.55,16.50,14.55,35.27,120.08,
06/01/2021,01:08:13.58,-7.32,-993.16,-151.86,1.40,1.89,0.61,-36.60,17.25,14.55,35.55,120.08,
06/01/2021,01:08:13.60,-19.04,-982.91,-144.53,0.67,0.85,-0.24,-36.60,16.50,16.05,35.07,120.08,
06/01/2021,01:08:13.60,-7.32,-999.02,-161.13,0.12,1.83,0.91,-38.10,17.25,15.30,35.36,120.08,
06/01/2021,01:08:13.61,-4.39,-1003.42,-151.37,0.24,0.91,-1.65,-38.10,17.25,15.30,35.55,120.08,
06/01/2021,01:08:13.62,-24.90,-992.68,-141.11,1.46,0.67,-2.44,-35.70,17.85,15.15,35.55,120.08,
06/01/2021,01:08:13.62,-9.77,-997.56,-159.18,-0.67,2.87,-0.49,-35.70,17.85,15.15,35.27,120.08,
06/01/2021,01:08:13.64,-19.53,-990.23,-160.64,2.26,-0.91,0.12,-35.85,16.80,13.80,35.17,120.08,
06/01/2021,01:08:13.64,3.91,-989.26,-164.06,1.83,2.68,-0.37,-37.50,16.20,16.20,35.36,120.08,
06/01/2021,01:08:13.65,-5.86,-994.14,-166.99,-1.59,1.04,-1.04,-37.50,16.20,16.20,35.36,120.08,
06/01/2021,01:08:13.65,-4.88,-991.21,-165.53,0.91,3.60,-1.22,-37.50,16.20,16.20,35.36,120.08,
06/01/2021,01:08:13.66,-9.77,-993.65,-153.32,1.22,0.30,-0.43,-37.50,16.20,16.20,35.22,120.08,
06/01/2021,01:08:13.67,-15.14,-989.75,-163.09,1.34,-0.37,0.49,-37.65,16.80,15.60,35.60,120.08,
06/01/2021,01:08:13.68,-7.32,-1005.86,-158.69,2.62,0.18,1.89,-37.65,16.80,15.60,35.22,120.08,
06/01/2021,01:08:13.69,-1.46,-999.02,-161.13,-0.12,1.71,0.00,-36.15,15.75,14.85,35.46,120.08,
06/01/2021,01:08:13.69,-3.91,-994.63,-149.41,0.79,0.98,0.85,-35.70,15.45,13.95,35.22,120.08,
06/01/2021,01:08:13.70,-15.14,-993.65,-151.86,2.99,1.34,0.37,-35.70,15.45,13.95,35.07,120.08,
06/01/2021,01:08:13.70,-3.42,-1000.49,-153.81,3.35,1.34,-1.04,-36.00,16.65,14.70,35.36,120.08,
06/01/2021,01:08:13.72,-0.49,-1000.00,-130.86,4.02,1.46,2.01,-37.50,15.90,13.95,35.55,120.08,
06/01/2021,01:08:13.73,-12.21,-998.05,-137.70,2.68,2.62,-0.79,-37.35,15.75,17.10,35.22,120.08,
06/01/2021,01:08:13.73,-16.11,-1000.49,-130.86,5.85,-1.04,0.98,-37.35,15.75,17.10,35.36,120.08,
06/01/2021,01:08:13.74,6.35,-986.82,-147.46,6.34,2.99,0.30,-35.55,17.25,15.30,35.46,120.08,
06/01/2021,01:08:13.74,-9.28,-987.79,-132.32,4.94,0.73,1.34,-35.55,17.25,15.30,35.07,120.08,
06/01/2021,01:08:13.76,-5.86,-989.75,-146.48,2.87,1.04,-1.28,-36.60,15.30,16.05,35.22,120.08,
06/01/2021,01:08:13.76,-6.84,-994.63,-148.93,2.38,0.98,-1.89,-36.60,15.30,16.05,35.55,120.08,
06/01/2021,01:08:13.77,-1.46,-991.21,-148.93,3.48,1.89,2.99,-36.60,15.30,16.05,35.55,120.08,
06/01/2021,01:08:13.78,0.00,-988.77,-169.43,2.01,-0.98,-0.67,-35.85,16.50,14.25,35.46,120.08,
06/01/2021,01:08:13.78,-15.14,-992.19,-156.25,2.87,-1.04,-2.68,-35.85,16.50,14.25,35.60,120.08,
06/01/2021,01:08:13.79,-12.70,-986.33,-139.16,3.17,1.95,-0.18,-33.75,16.20,13.20,35.07,120.08,
06/01/2021,01:08:13.80,-9.28,-975.10,-139.16,3.23,1.52,-0.24,-35.70,17.40,14.40,35.17,120.08,
06/01/2021,01:08:13.81,-2.93,-997.07,-136.72,1.59,0.85,0.61,-38.10,14.85,17.10,35.07,120.08,
06/01/2021,01:08:13.81,0.49,-981.93,-137.70,1.52,0.49,-1.83,-36.90,17.25,14.55,35.46,120.08,
06/01/2021,01:08:13.82,-20.51,-991.70,-141.60,3.41,-2.44,-0.18,-36.90,17.25,14.55,35.36,120.08,
06/01/2021,01:08:13.83,-7.81,-1000.98,-133.79,2.44,-4.09,0.49,-35.70,17.10,14.40,35.36,120.08,
06/01/2021,01:08:13.84,-11.23,-1001.95,-150.39,3.48,-1.40,1.04,-35.70,17.10,14.40,35.41,120.08,
06/01/2021,01:08:13.85,-8.30,-999.51,-144.04,2.50,-0.73,0.73,-36.90,18.00,15.60,35.07,120.08,
06/01/2021,01:08:13.85,-9.28,-992.68,-143.55,1.16,0.55,-0.24,-36.90,18.00,15.60,35.55,120.08,
06/01/2021,01:08:13.86,-10.25,-999.02,-145.02,-0.24,-0.43,-3.29,-36.90,18.00,15.60,35.60,120.08,
06/01/2021,01:08:13.86,-14.16,-992.19,-137.21,1.16,0.06,-0.98,-36.60,17.55,13.50,35.46,120.08,
06/01/2021,01:08:13.88,-9.77,-992.68,-146.48,-0.12,-0.79,-2.44,-37.65,16.50,15.60,35.55,120.08,
06/01/2021,01:08:13.89,-4.88,-997.07,-150.39,-0.67,-3.66,-0.98,-37.20,17.40,14.70,35.70,120.08,
06/01/2021,01:08:13.89,-9.77,-993.65,-144.04,0.61,-2.38,1.59,-37.20,17.40,14.70,35.36,120.08,
06/01/2021,01:08:13.90,-7.81,-1003.91,-147.95,-0.85,-1.65,-3.41,-35.85,17.25,15.30,35.36,120.08,
06/01/2021,01:08:13.90,-9.77,-1003.91,-137.21,-0.12,0.37,-1.65,-35.85,17.25,15.30,35.41,120.08,
06/01/2021,01:08:13.91,-21.97,-997.56,-148.93,3.78,-2.20,0.73,-36.75,17.85,14.70,35.17,120.08,
06/01/2021,01:08:13.95,-19.53,-986.33,-140.14,1.34,0.37,-2.87,-37.50,15.90,16.20,35.17,120.08,
06/01/2021,01:08:13.97,-8.79,-996.09,-131.84,1.52,-1.10,0.98,-36.90,16.80,17.10,35.55,120.08,
06/01/2021,01:08:13.97,-7.81,-994.63,-130.86,-0.18,-1.65,-0.06,-36.90,16.80,17.10,35.36,120.08,
06/01/2021,01:08:13.98,-5.86,-992.68,-136.72,1.83,-2.01,-0.85,-36.90,17.55,15.60,35.41,120.08,
06/01/2021,01:08:13.98,-9.77,-995.61,-143.55,-2.62,-3.41,-1.28,-36.90,17.55,15.60,35.55,120.08,
06/01/2021,01:08:14.00,-11.23,-991.21,-151.86,0.67,-3.29,-0.79,-37.50,16.20,17.70,35.55,120.08,
06/01/2021,01:08:14.01,-3.91,-995.61,-143.55,-2.50,-2.62,0.12,-37.50,16.20,17.70,35.36,120.08,
06/01/2021,01:08:14.01,2.93,-999.51,-141.11,0.61,-2.20,-1.52,-37.20,17.40,16.95,35.27,120.08,
06/01/2021,01:08:14.02,-8.79,-980.47,-140.62,0.49,-1.59,-3.60,-36.15,17.55,15.60,35.22,120.08,
06/01/2021,01:08:14.02,-1.95,-992.68,-137.21,-0.37,-2.62,1.22,-36.15,17.55,15.60,35.36,120.08,
06/01/2021,01:08:14.04,6.35,-994.63,-142.58,-0.18,-2.87,-0.61,-35.25,16.65,13.65,35.55,120.08,
06/01/2021,01:08:14.05,-2.44,-993.16,-135.74,-1.46,-0.12,-1.04,-35.25,16.65,13.65,35.22,120.08,
06/01/2021,01:08:14.05,-8.30,-989.26,-156.74,-1.22,-2.56,0.00,-36.15,18.00,14.55,35.27,120.08,
06/01/2021,01:08:14.06,-21.00,-997.07,-138.67,-2.68,-1.65,-0.37,-36.15,18.00,14.55,35.55,120.08,
06/01/2021,01:08:14.06,-4.88,-987.30,-136.23,-0.98,-1.52,-0.61,-35.85,18.45,13.80,35.17,120.08,
06/01/2021,01:08:14.08,5.86,-998.05,-135.25,-2.80,0.06,-3.54,-36.90,17.55,15.60,35.55,120.08,
06/01/2021,01:08:14.08,1.46,-988.77,-134.77,0.43,-3.29,-2.44,-37.35,17.25,15.60,35.36,120.08,
06/01/2021,01:08:14.09,0.00,-996.58,-143.07,-1.22,0.06,-1.22,-36.90,16.05,14.55,35.27,120.08,
06/01/2021,01:08:14.10,6.35,-999.02,-145.02,-1.04,-1.10,-1.40,-36.90,16.05,14.55,35.55,120.08,
06/01/2021,01:08:14.10,-4.39,-998.54,-143.55,-0.55,-1.40,-1.95,-36.60,16.50,13.80,35.55,120.08,
06/01/2021,01:08:14.11,-3.91,-1009.77,-151.86,-3.90,-2.99,-0.12,-36.60,16.50,13.80,35.22,120.08,
06/01/2021,01:08:14.12,1.95,-996.09,-147.95,-1.59,-0.24,-2.44,-37.95,17.10,16.20,35.36,120.08,
06/01/2021,01:08:14.13,-8.79,-995.61,-146.48,-3.48,-3.90,-3.96,-37.95,17.10,16.20,35.60,120.08,
06/01/2021,01:08:14.13,-11.72,-988.77,-133.30,-0.91,-0.18,-1.22,-37.95,17.10,16.20,35.60,120.08,
06/01/2021,01:08:14.14,-21.97,-985.84,-137.21,-2.01,-1.16,-0.49,-36.15,15.75,14.25,35.46,120.08,
06/01/2021,01:08:14.15,-19.04,-986.82,-139.16,-1.77,-1.71,-1.10,-36.15,15.75,14.25,35.36,120.08,
06/01/2021,01:08:14.16,-9.77,-990.23,-140.14,-2.20,-2.50,-2.56,-37.50,17.10,16.20,35.55,120.08,
06/01/2021,01:08:14.17,-16.60,-1003.42,-146.00,-1.04,-0.55,-1.83,-37.50,17.10,16.20,35.55,120.08,
06/01/2021,01:08:14.17,-7.81,-998.05,-145.51,-2.01,-1.34,0.24,-36.90,18.45,15.60,35.03,120.08,
06/01/2021,01:08:14.18,-8.79,-997.07,-135.74,-2.99,-3.23,-0.49,-36.90,18.45,15.60,35.55,120.08,
06/01/2021,01:08:14.18,-11.23,-997.07,-146.48,-3.96,-2.44,-3.84,-33.45,17.85,15.15,35.22,120.08,
06/01/2021,01:08:14.20,-16.60,-999.02,-148.44,-3.29,-2.50,-0.24,-38.55,16.20,16.20,35.17,120.08,
06/01/2021,01:08:14.21,-14.16,-996.58,-153.81,0.61,-2.13,-0.73,-38.55,16.20,16.20,35.36,120.08,
06/01/2021,01:08:14.21,-10.25,-991.21,-146.48,-1.52,-1.95,-2.56,-35.70,18.60,15.15,35.41,120.08,
06/01/2021,01:08:14.22,-3.91,-1006.84,-154.30,-0.73,-1.89,-1.16,-35.70,18.60,15.15,35.46,120.08,
06/01/2021,01:08:14.22,-13.67,-1003.42,-152.34,-1.46,-1.71,-0.12,-35.70,18.60,15.15,35.36,120.08,
06/01/2021,01:08:14.23,-14.16,-1009.28,-154.79,-2.93,-5.49,-1.71,-35.70,18.60,15.15,35.22,120.08,
06/01/2021,01:08:14.25,-19.04,-1001.95,-146.48,-3.35,-0.06,-1.52,-36.15,17.55,14.85,35.36,120.08,
06/01/2021,01:08:14.25,-7.81,-994.63,-153.81,-1.95,-0.37,-2.56,-37.50,15.90,16.95,35.55,120.08,
06/01/2021,01:08:14.26,-8.79,-991.70,-141.60,-2.44,-2.26,-0.98,-37.50,15.90,16.95,35.36,120.08,
06/01/2021,01:08:14.26,-13.18,-985.35,-147.95,-2.32,-1.16,-0.18,-35.70,17.40,14.40,35.36,120.08,
06/01/2021,01:08:14.27,-9.77,-985.35,-147.46,-3.90,-2.26,-1.22,-35.70,17.40,14.40,35.55,120.08,
06/01/2021,01:08:14.28,-11.23,-1004.88,-135.74,-2.44,-2.38,1.28,-37.65,15.75,16.80,35.36,120.08,
06/01/2021,01:08:14.29,-4.88,-999.51,-154.30,-1.34,-3.84,-3.78,-37.65,15.75,16.80,35.27,120.08,
06/01/2021,01:08:14.30,-3.91,-995.12,-150.39,0.18,-0.85,1.52,-37.50,17.85,16.20,35.55,120.08,
06/01/2021,01:08:14.30,-1.95,-991.70,-156.74,-1.46,-1.40,-1.10,-35.55,19.95,13.80,35.46,120.08,
06/01/2021,01:08:14.31,-5.37,-992.19,-142.09,-0.91,-1.83,-2.38,-35.55,19.95,13.80,35.36,120.08,
06/01/2021,01:08:14.32,-10.25,-990.23,-161.62,-3.60,-0.61,-2.01,-36.75,16.65,15.90,35.36,120.08,
06/01/2021,01:08:14.33,-10.74,-988.28,-154.79,-2.74,-0.98,-0.98,-36.75,16.65,15.90,35.27,120.08,
06/01/2021,01:08:14.34,-10.74,-993.16,-149.90,-1.52,-0.61,-1.59,-36.75,16.65,15.90,35.17,120.08,
06/01/2021,01:08:14.34,0.49,-988.77,-153.32,-1.40,-1.22,-1.16,-36.75,16.65,15.90,35.46,120.08,
06/01/2021,01:08:14.35,6.84,-996.58,-153.81,-0.98,-1.28,1.28,-36.45,17.10,13.65,35.46,120.08,
06/01/2021,01:08:14.36,-0.49,-978.52,-150.39,-2.38,-1.16,-0.98,-37.50,15.90,16.95,35.55,120.08,
06/01/2021,01:08:14.37,-3.42,-982.42,-156.25,-1.71,-1.04,-0.49,-37.50,15.90,16.95,35.07,120.08,
06/01/2021,01:08:14.37,-5.86,-986.33,-144.53,-0.18,-1.95,-4.02,-37.35,16.80,14.25,35.27,120.08,
06/01/2021,01:08:14.38,-8.30,-1008.30,-149.90,-0.43,-0.30,-2.01,-37.35,16.80,14.25,35.55,120.08,
06/01/2021,01:08:14.39,4.88,-982.91,-150.39,-1.77,-2.68,-0.49,-34.95,16.65,14.70,35.36,120.08,
06/01/2021,01:08:14.39,3.91,-995.61,-145.02,-2.07,-1.83,-1.34,-34.95,16.65,14.70,35.22,120.08,
06/01/2021,01:08:14.41,-22.95,-995.61,-149.41,-1.89,-0.37,-0.55,-36.45,17.40,14.40,35.22,120.08,
06/01/2021,01:08:14.41,-5.37,-1000.98,-138.18,-2.99,1.04,-2.01,-38.10,17.25,14.40,35.22,120.08,
06/01/2021,01:08:14.42,0.00,-1008.79,-149.41,-3.48,-0.73,-1.65,-38.10,17.25,15.30,35.55,120.08,
06/01/2021,01:08:14.42,-0.49,-983.40,-138.18,-1.89,-1.52,0.43,-38.10,17.25,15.30,35.22,120.08,
06/01/2021,01:08:14.46,-2.44,-991.70,-147.46,-2.99,-1.10,-2.87,-38.10,16.05,14.85,35.36,120.08,
06/01/2021,01:08:14.48,-9.77,-994.63,-144.53,-2.07,0.24,0.67,-40.05,16.20,15.90,35.46,120.08,
06/01/2021,01:08:14.49,-4.88,-985.84,-152.34,-2.38,-1.10,-0.85,-38.10,14.85,15.60,35.60,120.08,
06/01/2021,01:08:14.49,2.93,-998.54,-160.16,-1.71,-1.77,0.98,-38.10,14.85,15.60,35.55,120.08,
06/01/2021,01:08:14.50,-2.93,-1000.00,-152.83,-2.56,1.40,0.43,-35.55,16.80,14.85,35.17,120.08,
06/01/2021,01:08:14.51,-0.98,-988.77,-152.83,-2.99,-0.98,0.85,-37.35,17.55,14.55,35.36,120.08,
06/01/2021,01:08:14.52,1.95,-992.19,-151.37,-2.44,-1.77,2.13,-37.35,17.55,14.55,35.27,120.08,
06/01/2021,01:08:14.53,-1.95,-981.45,-154.79,-4.27,-0.55,-0.24,-38.10,16.05,16.35,35.36,120.08,
06/01/2021,01:08:14.53,-2.93,-979.00,-149.90,-3.84,0.37,-0.55,-38.10,16.05,16.35,35.07,120.08,
06/01/2021,01:08:14.54,-11.23,-989.75,-153.32,-0.91,-0.73,0.98,-38.10,16.05,16.35,35.27,120.08,
06/01/2021,01:08:14.54,1.95,-1000.00,-162.11,0.49,-2.07,0.18,-38.10,16.05,16.35,35.55,120.08,
06/01/2021,01:08:14.55,8.79,-987.79,-156.25,-2.68,0.55,-1.16,-37.35,16.80,14.85,35.22,120.08,
06/01/2021,01:08:14.56,-4.88,-995.12,-156.25,-0.43,-0.37,-1.34,-37.50,15.90,13.65,35.41,120.08,
06/01/2021,01:08:14.57,-4.39,-986.33,-154.30,0.37,0.30,-0.85,-37.50,15.90,16.50,35.60,120.08,
06/01/2021,01:08:14.58,-2.44,-989.26,-154.79,-2.07,-0.79,-1.16,-35.25,17.85,14.40,35.17,120.08,
06/01/2021,01:08:14.58,6.35,-992.19,-152.83,-1.16,-1.34,-1.65,-35.25,17.85,14.40,35.41,120.08,
06/01/2021,01:08:14.59,-1.46,-989.75,-157.23,-1.04,-2.56,-2.50,-36.00,16.20,13.65,35.36,120.08,
06/01/2021,01:08:14.60,-3.91,-998.54,-155.27,-0.55,-1.89,0.30,-35.55,15.75,14.85,35.55,120.08,
06/01/2021,01:08:14.61,-4.39,-1000.00,-166.50,-1.59,-3.23,-1.40,-35.55,15.75,14.85,35.36,120.08,
06/01/2021,01:08:14.62,0.00,-989.26,-157.71,-1.95,2.93,-1.10,-36.15,16.80,13.05,35.27,120.08,
06/01/2021,01:08:14.62,-6.35,-994.14,-162.60,-2.32,-3.35,-0.73,-36.15,16.80,13.05,35.27,120.08,
06/01/2021,01:08:14.63,6.84,-997.07,-163.57,-3.35,-0.24,1.40,-36.15,16.80,13.05,35.07,120.08,
06/01/2021,01:08:14.64,7.81,-987.79,-166.02,-0.73,-2.13,-1.22,-36.45,17.40,15.90,35.36,120.08,
06/01/2021,01:08:14.65,-1.95,-988.77,-150.39,-0.43,-2.50,-1.46,-39.90,17.25,17.85,35.60,120.08,
06/01/2021,01:08:14.65,3.42,-994.63,-144.04,-1.71,-2.20,1.83,-39.90,17.25,17.85,35.46,120.08,
06/01/2021,01:08:14.66,-1.46,-994.14,-146.00,-2.38,0.00,-0.67,-36.45,17.40,15.15,35.55,120.08,
06/01/2021,01:08:14.67,-2.44,-986.82,-151.37,-2.13,-2.68,-2.68,-36.45,15.45,13.20,35.55,120.08,
06/01/2021,01:08:14.67,-7.32,-994.14,-146.48,-0.30,-0.30,-1.22,-36.45,15.45,13.20,35.36,120.08,
06/01/2021,01:08:14.69,3.91,-995.61,-164.06,-1.16,-2.01,-0.73,-36.90,16.50,16.80,35.60,120.08,
06/01/2021,01:08:14.69,-8.30,-991.21,-157.23,0.91,-2.13,0.43,-36.90,16.50,16.80,35.36,120.08,
06/01/2021,01:08:14.70,1.46,-979.98,-166.50,1.16,-1.77,0.49,-36.90,16.50,16.80,35.36,120.08,
06/01/2021,01:08:14.71,-2.93,-986.82,-165.04,-0.06,-0.37,0.91,-36.90,16.50,16.80,35.55,120.08,
06/01/2021,01:08:14.71,-9.28,-977.54,-166.02,-4.88,-2.80,-3.17,-34.95,17.85,16.95,35.60,120.08,
06/01/2021,01:08:14.73,-8.79,-978.03,-150.88,-4.39,-1.65,0.55,-34.95,17.85,16.95,35.27,120.08,
06/01/2021,01:08:14.73,-3.42,-982.42,-125.00,-1.77,-2.93,-0.18,-39.60,16.50,17.55,35.36,120.08,
06/01/2021,01:08:14.74,11.72,-977.05,-142.58,-3.41,-0.79,-2.38,-34.80,15.75,13.05,35.22,120.08,
06/01/2021,01:08:14.74,1.46,-980.47,-142.09,-1.71,-2.44,-0.12,-34.80,15.75,13.05,35.46,120.08,
06/01/2021,01:08:14.75,-11.23,-979.98,-161.62,1.10,-2.93,1.59,-35.25,16.65,13.20,35.22,120.08,
06/01/2021,01:08:14.77,-13.18,-1002.44,-186.52,0.67,-3.17,0.85,-35.85,14.55,14.85,35.36,120.08,
06/01/2021,01:08:14.77,-0.49,-1000.98,-171.39,2.13,-2.93,-0.67,-38.55,15.45,15.15,35.27,120.08,
06/01/2021,01:08:14.78,0.49,-995.61,-180.66,-0.12,-1.40,0.18,-38.55,15.45,15.15,35.27,120.08,
06/01/2021,01:08:14.78,-2.44,-1009.28,-179.20,-1.59,-1.65,-2.44,-35.85,16.80,14.55,35.55,120.08,
06/01/2021,01:08:14.79,-3.42,-995.61,-164.06,-3.78,-3.72,0.18,-35.85,16.80,14.55,35.36,120.08,
06/01/2021,01:08:14.79,1.46,-993.16,-159.67,-3.60,-2.38,-0.85,-35.85,16.80,14.55,35.36,120.08,
06/01/2021,01:08:14.81,6.35,-978.03,-143.55,-2.44,-4.09,-0.06,-35.55,18.00,14.55,35.22,120.08,
06/01/2021,01:08:14.82,-3.42,-992.68,-147.95,-1.77,-2.56,0.43,-35.55,18.00,14.55,35.41,120.08,
06/01/2021,01:08:14.82,-2.44,-988.28,-135.74,-1.89,-1.40,-1.46,-36.60,17.55,13.50,35.36,120.08,
06/01/2021,01:08:14.83,1.46,-984.86,-157.23,-3.41,-1.77,-3.11,-36.60,17.55,13.50,35.07,120.08,
06/01/2021,01:08:14.83,-4.39,-987.79,-158.20,-0.67,-3.66,1.34,-35.70,16.20,13.95,35.22,120.08,
06/01/2021,01:08:14.85,-7.32,-991.70,-152.83,0.49,0.61,0.85,-36.00,15.90,14.40,35.41,120.08,
06/01/2021,01:08:14.85,0.49,-1002.93,-165.53,0.61,-2.13,0.98,-38.85,14.85,16.35,35.17,120.08,
06/01/2021,01:08:14.86,-7.81,-982.91,-182.62,0.43,-0.43,0.67,-35.85,16.80,14.25,35.55,120.08,
06/01/2021,01:08:14.87,1.46,-996.58,-169.43,-1.89,-2.32,1.95,-35.85,16.80,14.25,35.22,120.08,
06/01/2021,01:08:14.87,0.98,-988.77,-158.20,-1.22,-1.40,0.18,-36.75,17.10,13.95,35.55,120.08,
06/01/2021,01:08:14.89,-15.62,-979.49,-171.39,-3.41,0.12,-0.91,-37.50,17.10,14.40,35.22,120.08,
06/01/2021,01:08:14.89,-6.35,-988.28,-174.32,0.67,-3.72,0.12,-37.65,16.80,16.35,35.27,120.08,
06/01/2021,01:08:14.90,8.79,-997.56,-167.97,-2.50,-2.13,-0.24,-37.65,16.80,16.35,35.41,120.08,
06/01/2021,01:08:14.90,14.16,-996.58,-166.02,-2.20,-2.74,-0.73,-37.65,16.80,16.35,35.07,120.08,
06/01/2021,01:08:14.91,-14.65,-986.82,-158.20,-1.89,0.79,-0.79,-37.20,16.65,14.40,35.36,120.08,
06/01/2021,01:08:14.92,-5.86,-995.12,-170.90,0.85,-3.23,-2.13,-37.20,16.65,14.40,35.27,120.08,
06/01/2021,01:08:14.93,-8.79,-1000.98,-169.43,-3.11,-0.98,-0.67,-38.55,17.40,15.45,35.22,120.08,
06/01/2021,01:08:14.96,-11.23,-988.28,-167.97,0.24,-3.66,0.30,-36.75,15.45,13.95,35.36,120.08,
06/01/2021,01:08:14.98,-6.35,-980.47,-177.73,-0.37,-1.77,-0.18,-38.25,17.10,14.40,35.46,120.08,
06/01/2021,01:08:14.98,-1.95,-992.68,-166.50,-0.49,-0.67,0.37,-39.00,15.15,16.20,35.41,120.08,
06/01/2021,01:08:14.99,-11.72,-999.02,-151.86,-1.28,-0.43,-1.71,-39.00,15.15,16.20,35.22,120.08,
06/01/2021,01:08:15.01,-12.21,-994.14,-165.53,-2.20,-0.30,-2.13,-38.25,15.15,14.40,35.27,120.08,
06/01/2021,01:08:15.01,-14.65,-989.75,-161.62,0.67,-1.46,-0.12,-38.25,15.15,14.40,34.93,120.08,
06/01/2021,01:08:15.02,0.00,-992.68,-166.99,-1.10,1.22,0.55,-38.25,15.15,14.40,35.55,120.08,
06/01/2021,01:08:15.02,-8.30,-991.70,-171.39,0.00,-2.13,-0.43,-37.35,16.50,14.85,35.27,120.08,
06/01/2021,01:08:15.03,2.93,-988.28,-169.92,-0.37,0.00,-1.22,-37.35,16.50,14.85,35.36,120.08,
06/01/2021,01:08:15.05,0.00,-988.28,-173.34,2.13,-3.72,1.59,-37.20,17.85,14.70,35.46,120.08,
06/01/2021,01:08:15.05,5.37,-987.30,-163.57,0.12,-1.04,-3.29,-37.20,17.85,14.70,35.36,120.08,
06/01/2021,01:08:15.06,-16.60,-988.28,-166.02,-0.61,-1.46,0.37,-36.90,17.55,14.85,35.36,120.08,
06/01/2021,01:08:15.06,-12.70,-988.28,-151.37,0.24,-2.68,-0.91,-37.35,15.75,13.80,35.27,120.08,
06/01/2021,01:08:15.07,-14.16,-987.30,-149.41,-2.01,-1.16,-1.83,-37.35,15.75,13.80,35.60,120.08,
06/01/2021,01:08:15.08,-6.84,-989.26,-171.39,0.12,-3.23,0.18,-36.45,18.15,13.95,35.27,120.08,
06/01/2021,01:08:15.09,-1.46,-992.68,-167.48,-0.12,0.18,-1.04,-36.45,18.15,13.95,35.07,120.08,
06/01/2021,01:08:15.10,8.79,-994.14,-162.60,0.73,-0.43,0.37,-37.50,16.65,13.95,35.36,120.08,
06/01/2021,01:08:15.10,0.00,-991.21,-166.50,0.37,0.49,1.59,-37.50,16.65,13.95,35.27,120.08,
06/01/2021,01:08:15.11,-7.32,-990.72,-184.08,-0.55,-2.80,-1.77,-37.50,16.65,13.95,35.55,120.08,
06/01/2021,01:08:15.11,7.81,-987.79,-175.78,0.12,-3.29,-1.46,-36.75,17.10,13.65,35.55,120.08,
06/01/2021,01:08:15.13,-8.30,-986.82,-171.88,1.16,-0.61,-2.68,-37.20,15.15,15.45,35.36,120.08,
06/01/2021,01:08:15.13,-18.55,-986.33,-163.57,-1.40,-2.38,-1.10,-38.55,18.15,13.20,35.27,120.08,
06/01/2021,01:08:15.14,-13.67,-995.61,-176.76,-0.49,1.16,1.77,-38.55,18.15,13.20,35.46,120.08,
06/01/2021,01:08:15.15,-3.42,-982.42,-179.20,-1.40,0.49,-0.18,-35.85,15.75,14.55,35.55,120.08,
06/01/2021,01:08:15.15,0.98,-973.14,-173.83,-0.91,0.49,0.30,-35.85,15.75,14.55,35.55,120.08,
06/01/2021,01:08:15.17,0.00,-994.63,-172.85,0.67,-1.65,-0.06,-37.65,16.05,14.85,35.36,120.08,
06/01/2021,01:08:15.17,-12.70,-991.70,-166.50,-0.49,-0.73,-3.41,-37.65,16.05,14.85,35.41,120.08,
06/01/2021,01:08:15.18,-3.42,-987.79,-162.11,-2.74,1.22,-0.06,-37.65,16.05,14.85,35.55,120.08,
06/01/2021,01:08:15.18,-3.91,-989.26,-175.78,1.46,0.55,0.30,-37.35,17.25,13.80,35.07,120.08,
06/01/2021,01:08:15.19,-8.79,-979.00,-183.11,0.12,1.71,0.18,-37.35,17.25,13.80,35.36,120.08,
06/01/2021,01:08:15.20,-4.88,-984.86,-180.66,0.49,1.46,-2.38,-37.35,17.25,13.80,35.46,120.08,
06/01/2021,01:08:15.21,-13.67,-984.38,-166.02,-0.91,-0.98,0.30,-36.15,16.80,14.85,35.27,120.08,
06/01/2021,01:08:15.22,5.37,-984.38,-163.57,-0.49,0.12,0.30,-39.15,16.80,16.80,35.07,120.08,
06/01/2021,01:08:15.22,-19.53,-992.68,-173.83,-2.44,-1.59,-1.28,-39.15,16.80,16.80,35.36,120.08,
06/01/2021,01:08:15.23,-11.23,-990.72,-175.29,-1.34,0.43,0.12,-36.90,17.25,13.50,35.46,120.08,
06/01/2021,01:08:15.24,-13.67,-984.86,-166.50,-1.59,2.74,-1.40,-38.25,17.10,14.40,35.55,120.08,
06/01/2021,01:08:15.25,3.42,-1001.95,-169.43,-2.38,2.01,-0.91,-36.90,16.05,14.55,35.55,120.08,
06/01/2021,01:08:15.26,-9.77,-986.33,-161.62,-2.26,0.06,1.10,-38.25,17.40,15.45,35.46,120.08,
06/01/2021,01:08:15.26,0.98,-980.96,-176.27,-1.22,0.37,-0.37,-38.25,17.40,15.45,35.60,120.08,
06/01/2021,01:08:15.27,-20.02,-990.72,-166.50,-1.71,-1.28,-1.46,-36.75,17.10,13.95,35.46,120.08,
06/01/2021,01:08:15.27,-13.18,-982.91,-178.22,-2.13,1.10,-1.59,-36.75,17.10,13.95,35.22,120.08,
06/01/2021,01:08:15.29,-3.42,-995.61,-163.57,-2.68,-0.73,1.04,-37.35,18.00,13.05,35.60,120.08,
06/01/2021,01:08:15.30,-15.14,-988.28,-172.85,-3.35,0.67,1.77,-38.25,16.20,14.70,35.70,120.08,
06/01/2021,01:08:15.30,-17.09,-1000.98,-172.36,-1.04,-0.37,1.59,-38.25,16.20,14.70,35.22,120.08,
06/01/2021,01:08:15.31,0.00,-984.38,-165.04,-0.12,-1.04,1.16,-38.25,16.20,14.70,35.55,120.08,
06/01/2021,01:08:15.31,3.91,-994.14,-166.50,-2.56,-0.73,-1.28,-38.25,16.20,14.70,35.36,120.08,
06/01/2021,01:08:15.32,-14.16,-1000.98,-172.85,-0.79,1.28,1.34,-38.10,16.80,13.05,35.22,120.08,
06/01/2021,01:08:15.34,-16.11,-985.35,-172.85,-0.55,0.79,-0.06,-36.90,15.30,14.55,35.41,120.08,
06/01/2021,01:08:15.34,-3.42,-987.79,-169.92,-2.32,2.32,-0.67,-40.05,14.70,18.00,35.60,120.08,
06/01/2021,01:08:15.35,-10.74,-982.42,-161.13,-0.55,-1.34,-0.67,-37.35,17.55,14.25,35.27,120.08,
06/01/2021,01:08:15.35,-1.46,-989.26,-172.36,-0.12,-1.10,-1.83,-37.35,17.55,14.25,35.27,120.08,
06/01/2021,01:08:15.36,-16.60,-983.40,-165.53,0.91,1.28,1.28,-37.95,15.45,13.20,35.22,120.08,
06/01/2021,01:08:15.37,-1.95,-988.77,-160.64,1.28,-0.67,1.34,-37.35,16.80,13.50,35.55,120.08,
06/01/2021,01:08:15.38,-8.30,-984.86,-174.32,-1.40,-0.24,2.32,-37.35,16.80,13.50,35.17,120.08,
06/01/2021,01:08:15.39,12.70,-980.47,-175.78,-2.32,1.16,-1.16,-37.35,16.80,13.50,35.60,120.08,
06/01/2021,01:08:15.39,-17.58,-991.21,-178.71,-2.20,1.10,2.50,-36.60,17.25,13.05,35.55,120.08,
06/01/2021,01:08:15.40,-20.51,-990.72,-169.43,0.24,0.98,-2.13,-36.60,17.25,13.05,35.07,120.08,
06/01/2021,01:08:15.41,-14.16,-981.45,-167.97,-0.61,-0.18,2.50,-36.90,17.25,13.80,35.36,120.08,
06/01/2021,01:08:15.42,-10.74,-985.84,-174.32,-0.37,0.85,1.28,-38.25,16.20,15.45,35.55,120.08,
06/01/2021,01:08:15.42,-11.23,-991.70,-161.13,-2.13,2.56,1.22,-38.25,16.20,15.45,35.22,120.08,
06/01/2021,01:08:15.43,2.93,-982.91,-171.88,-3.05,0.37,-1.83,-36.15,17.25,13.80,35.17,120.08,
06/01/2021,01:08:15.44,-8.79,-987.30,-177.25,-0.55,2.80,2.50,-36.15,17.25,13.80,35.60,120.08,
06/01/2021,01:08:15.44,-12.70,-987.30,-179.69,-1.89,0.85,1.95,-38.10,15.30,14.55,35.75,120.08,
06/01/2021,01:08:15.52,0.98,-994.14,-170.90,-1.59,1.34,-0.61,-39.30,13.20,17.70,35.07,120.08,
06/01/2021,01:08:15.53,-3.42,-1002.93,-172.85,-1.95,0.43,1.83,-37.95,16.65,15.90,35.27,120.08,
06/01/2021,01:08:15.54,-9.28,-1000.98,-175.29,-3.35,1.65,2.80,-37.95,16.65,15.90,35.27,120.08,
06/01/2021,01:08:15.54,-13.18,-991.21,-177.25,-0.73,0.12,5.49,-37.35,16.80,13.05,35.22,120.08,
06/01/2021,01:08:15.55,-17.09,-999.51,-166.50,-1.04,-0.61,0.73,-36.75,16.65,13.65,35.07,120.08,
06/01/2021,01:08:15.57,-4.39,-990.23,-175.29,-2.07,-0.67,2.74,-36.75,16.65,13.65,35.22,120.08,
06/01/2021,01:08:15.57,-16.11,-991.70,-177.25,-2.80,2.38,1.59,-37.95,16.20,15.45,35.27,120.08,
06/01/2021,01:08:15.58,-18.07,-994.63,-172.85,-2.26,-0.12,0.49,-37.95,16.20,15.45,35.07,120.08,
06/01/2021,01:08:15.58,-10.25,-1000.98,-172.36,-1.46,0.79,2.26,-37.95,16.20,15.45,35.36,120.08,
06/01/2021,01:08:15.59,-2.93,-991.70,-174.32,-2.87,-0.55,4.39,-37.95,16.20,15.45,35.36,120.08,
06/01/2021,01:08:15.60,-18.55,-988.77,-165.53,-2.50,1.65,-0.43,-38.85,16.50,16.05,35.60,120.08,
06/01/2021,01:08:15.61,-13.18,-973.63,-169.43,-1.46,-0.85,3.35,-37.50,16.65,15.15,35.60,120.08,
06/01/2021,01:08:15.62,-5.86,-981.45,-176.27,0.30,0.06,3.41,-37.50,16.65,15.15,35.36,120.08,
06/01/2021,01:08:15.62,-3.91,-996.58,-165.04,-0.18,-0.67,0.85,-35.85,17.55,12.75,35.17,120.08,
06/01/2021,01:08:15.63,-4.88,-982.42,-171.39,-0.55,-0.06,1.95,-35.85,17.55,12.75,35.46,120.08,
06/01/2021,01:08:15.64,-19.53,-997.56,-167.48,-0.06,0.49,-0.24,-37.50,16.20,14.40,35.07,120.08,
06/01/2021,01:08:15.65,-4.88,-991.21,-160.64,-1.04,1.22,-1.28,-37.50,16.20,14.40,35.36,120.08,
06/01/2021,01:08:15.65,-16.60,-994.14,-173.34,0.37,-3.23,1.59,-36.15,16.05,12.75,35.55,120.08,
06/01/2021,01:08:15.66,-6.35,-989.26,-176.76,-2.99,-0.91,1.10,-36.15,16.05,12.75,35.55,120.08,
06/01/2021,01:08:15.67,-5.37,-1000.49,-169.43,-2.87,0.12,0.91,-36.15,16.05,13.05,35.17,120.08,
06/01/2021,01:08:15.67,-16.11,-993.16,-174.80,0.49,-1.40,-0.85,-36.15,16.05,13.05,35.36,120.08,
06/01/2021,01:08:15.69,-19.04,-977.54,-173.34,-0.79,0.91,-1.40,-37.50,15.45,14.40,35.36,120.08,
06/01/2021,01:08:15.69,-15.14,-985.84,-175.78,0.00,-2.80,1.40,-37.50,15.45,14.40,35.27,120.08,
06/01/2021,01:08:15.70,-5.37,-993.16,-164.55,-1.77,-0.61,-0.67,-37.50,15.45,14.40,35.46,120.08,
06/01/2021,01:08:15.71,-20.51,-984.38,-179.20,1.28,-0.85,0.43,-36.00,16.65,13.20,35.27,120.08,
06/01/2021,01:08:15.71,-14.65,-989.26,-174.80,0.37,-1.77,1.83,-36.00,16.65,13.20,35.36,120.08,
06/01/2021,01:08:15.73,-4.88,-996.09,-174.80,-0.06,-0.49,-0.06,-37.50,16.20,15.90,35.36,120.08,
06/01/2021,01:08:15.73,-15.14,-987.79,-170.41,-2.44,-2.07,-0.24,-37.65,14.85,16.05,35.55,120.08,
06/01/2021,01:08:15.74,-7.32,-984.38,-172.85,-1.89,-1.10,-0.06,-37.65,14.85,16.05,35.55,120.08,
06/01/2021,01:08:15.74,-9.28,-986.82,-171.39,0.00,-2.38,2.99,-37.95,17.10,12.15,35.27,120.08,
06/01/2021,01:08:15.75,-3.91,-986.33,-182.13,-0.73,-1.22,-0.06,-37.95,17.10,12.15,35.55,120.08,
06/01/2021,01:08:15.77,-7.32,-999.51,-156.74,-0.67,-1.95,-2.07,-35.10,16.50,14.85,35.36,120.08,
06/01/2021,01:08:15.77,-31.25,-989.26,-175.29,1.10,-1.52,2.07,-35.10,16.50,14.85,35.60,120.08,
06/01/2021,01:08:15.78,-8.30,-991.70,-169.92,-1.10,-1.65,-0.24,-37.35,16.80,13.80,35.07,120.08,
06/01/2021,01:08:15.78,-6.35,-984.86,-179.69,0.73,-0.12,0.37,-37.35,16.80,13.80,35.46,120.08,
06/01/2021,01:08:15.79,-17.58,-984.86,-167.48,-0.24,-3.48,3.66,-37.35,16.80,13.80,35.46,120.08,
06/01/2021,01:08:15.79,-17.09,-991.21,-170.41,0.12,1.65,0.18,-36.15,17.25,12.75,35.27,120.08,
06/01/2021,01:08:15.81,-23.44,-998.05,-171.88,-0.49,1.10,-2.01,-36.75,15.45,13.20,35.17,120.08,
06/01/2021,01:08:15.82,-13.67,-977.54,-181.15,1.10,1.65,-1.52,-38.40,15.30,14.85,35.27,120.08,
06/01/2021,01:08:15.82,-15.14,-986.33,-174.32,0.06,-0.37,-2.80,-38.40,15.30,14.85,35.55,120.08,
06/01/2021,01:08:15.83,-14.16,-992.68,-174.80,0.06,-1.04,0.85,-34.95,15.45,13.95,35.60,120.08,
06/01/2021,01:08:15.83,-7.81,-969.24,-170.90,0.98,-3.54,-0.55,-36.90,16.80,13.80,35.07,120.08,
06/01/2021,01:08:15.85,-12.21,-981.45,-184.08,-0.24,-0.73,-2.74,-38.25,15.45,14.40,35.17,120.08,
06/01/2021,01:08:15.86,-7.81,-985.84,-169.43,1.46,-1.46,0.43,-38.25,15.45,14.40,35.55,120.08,
06/01/2021,01:08:15.86,-12.21,-980.96,-184.08,-1.59,0.18,-0.91,-38.25,15.45,14.40,35.22,120.08,
06/01/2021,01:08:15.87,-12.70,-977.05,-193.36,0.37,-2.32,-1.95,-37.35,16.80,13.80,35.27,120.08,
06/01/2021,01:08:15.87,-11.23,-995.12,-180.18,0.49,-1.65,0.79,-37.35,16.80,13.80,35.36,120.08,
06/01/2021,01:08:15.89,-17.09,-991.70,-177.25,-2.44,-3.29,0.85,-37.65,15.75,14.85,35.70,120.08,
06/01/2021,01:08:15.89,-10.25,-989.26,-158.20,-0.55,-2.01,0.12,-37.65,15.75,14.85,35.46,120.08,
06/01/2021,01:08:15.90,-12.70,-981.93,-173.34,-1.71,-3.29,-2.38,-37.50,16.20,13.95,35.55,120.08,
06/01/2021,01:08:15.91,-8.79,-985.84,-157.23,-0.49,-1.46,-2.93,-36.90,16.50,13.05,35.17,120.08,
06/01/2021,01:08:15.91,-9.77,-968.26,-175.78,-1.34,-0.79,-1.89,-36.90,16.50,13.05,35.46,120.08,
06/01/2021,01:08:15.92,-0.49,-981.45,-167.97,-0.73,-1.77,1.77,-36.75,15.45,13.65,35.36,120.08,
06/01/2021,01:08:15.93,-19.04,-989.26,-184.08,0.12,-0.91,-2.26,-36.00,17.10,13.20,35.27,120.08,
06/01/2021,01:08:15.94,-16.60,-976.56,-183.59,1.83,-0.37,-0.67,-38.55,16.20,15.90,35.46,120.08,
06/01/2021,01:08:15.94,13.18,-993.65,-170.41,0.43,-2.87,-1.77,-38.55,16.20,15.90,35.17,120.08,
06/01/2021,01:08:15.95,-20.51,-985.35,-189.45,-1.10,-1.10,-2.80,-38.55,16.20,15.90,35.55,120.08,
06/01/2021,01:08:15.96,-3.42,-975.10,-182.13,1.34,-1.22,-1.65,-37.95,15.45,11.85,35.55,120.08,
06/01/2021,01:08:16.00,-8.79,-994.14,-171.88,-0.12,0.37,-2.99,-37.35,16.50,14.85,35.36,120.08,
06/01/2021,01:08:16.01,-17.09,-982.91,-167.97,-0.30,-2.26,-2.26,-38.25,15.15,13.20,35.46,120.08,
06/01/2021,01:08:16.02,-12.70,-979.00,-176.27,0.85,0.79,-1.95,-38.25,15.45,15.90,35.41,120.08,
06/01/2021,01:08:16.03,0.49,-981.45,-172.85,0.73,0.00,-2.99,-38.25,15.45,15.90,35.22,120.08,
06/01/2021,01:08:16.03,-8.30,-980.96,-169.43,0.79,-1.52,-1.71,-38.25,17.10,13.20,35.41,120.08,
06/01/2021,01:08:16.05,-12.70,-993.65,-186.04,-2.56,0.55,-1.83,-36.45,14.70,15.45,35.46,120.08,
06/01/2021,01:08:16.05,-11.72,-980.96,-163.09,-1.40,0.43,-0.98,-36.45,14.70,15.45,35.07,120.08,
06/01/2021,01:08:16.06,-24.41,-1000.00,-186.52,-0.24,-0.73,-2.26,-36.45,14.70,15.45,35.55,120.08,
06/01/2021,01:08:16.06,-28.32,-979.49,-164.55,0.61,-1.46,1.65,-36.45,14.70,15.45,35.17,120.08,
06/01/2021,01:08:16.07,-13.67,-985.35,-174.80,0.79,0.30,-1.28,-36.45,15.45,14.40,35.27,120.08,
06/01/2021,01:08:16.08,-8.79,-985.84,-182.62,0.73,-2.07,-2.50,-36.45,15.45,14.40,35.22,120.08,
06/01/2021,01:08:16.09,-12.21,-979.98,-165.53,-0.73,-0.18,-0.85,-36.90,16.05,15.30,35.46,120.08,
06/01/2021,01:08:16.10,-23.44,-986.33,-178.71,-0.06,-1.71,-0.12,-36.90,16.05,15.30,35.17,120.08,
06/01/2021,01:08:16.10,-0.98,-995.12,-179.69,1.22,-0.91,-2.44,-39.30,15.90,13.20,35.55,120.08,
06/01/2021,01:08:16.11,-10.74,-985.35,-174.80,-0.18,0.00,-2.32,-36.90,17.25,13.80,35.22,120.08,
06/01/2021,01:08:16.11,-12.21,-988.77,-187.99,0.37,-1.10,-0.55,-36.90,17.25,13.80,35.36,120.08,
06/01/2021,01:08:16.13,-14.65,-984.38,-189.45,-1.71,-0.61,-2.56,-39.30,15.90,15.90,35.22,120.08,
06/01/2021,01:08:16.14,-15.62,-997.56,-182.13,1.71,1.83,-0.18,-39.30,15.90,15.90,35.22,120.08,
06/01/2021,01:08:16.14,-9.28,-984.86,-177.25,-0.55,-1.34,-2.74,-38.25,17.40,15.90,35.27,120.08,
06/01/2021,01:08:16.15,-16.60,-991.21,-165.53,0.00,0.43,-2.44,-38.25,17.40,15.90,35.27,120.08,
06/01/2021,01:08:16.15,-10.74,-993.16,-188.48,0.24,0.43,-3.72,-38.25,17.40,15.90,35.22,120.08,
06/01/2021,01:08:16.17,-12.70,-989.26,-199.22,-0.24,-0.98,-4.39,-35.25,15.90,14.40,35.36,120.08,
06/01/2021,01:08:16.17,-4.39,-990.23,-181.15,-0.12,-0.98,-2.32,-35.25,15.90,14.40,35.60,120.08,
06/01/2021,01:08:16.18,-5.37,-986.33,-188.48,-1.04,-1.10,-1.28,-36.15,15.75,13.05,35.36,120.08,
06/01/2021,01:08:16.19,-11.23,-996.09,-177.73,-1.95,1.89,-3.66,-36.15,15.75,13.05,35.27,120.08,
06/01/2021,01:08:16.19,4.39,-984.38,-173.83,-1.34,1.34,-0.85,-36.15,18.75,14.25,35.36,120.08,
06/01/2021,01:08:16.21,4.88,-983.40,-180.66,-0.73,-0.18,-0.06,-36.60,16.80,14.25,35.60,120.08,
06/01/2021,01:08:16.21,-8.79,-981.45,-183.11,-1.40,0.49,-1.34,-40.35,14.55,15.60,35.60,120.08,
06/01/2021,01:08:16.22,-2.93,-977.05,-180.18,0.55,-2.56,0.43,-37.95,17.40,13.20,35.55,120.08,
06/01/2021,01:08:16.23,-7.81,-974.12,-179.69,0.12,0.79,-0.67,-37.95,17.40,13.20,35.46,120.08,
06/01/2021,01:08:16.23,-0.49,-980.47,-180.66,1.89,-0.37,-0.06,-36.00,16.20,13.20,35.22,120.08,
06/01/2021,01:08:16.24,-2.44,-988.28,-186.04,-3.35,2.01,-0.30,-36.00,16.20,13.20,35.55,120.08,
06/01/2021,01:08:16.25,6.35,-983.40,-173.34,-2.32,2.87,-4.21,-38.25,14.70,14.70,35.36,120.08,
06/01/2021,01:08:16.26,0.98,-983.40,-178.22,-0.18,0.73,-0.79,-38.25,14.70,14.70,35.27,120.08,
06/01/2021,01:08:16.26,-20.51,-985.84,-185.55,-0.18,2.20,-0.43,-38.25,14.70,14.70,35.55,120.08,
06/01/2021,01:08:16.27,-8.79,-984.86,-180.18,-2.56,2.38,-2.13,-36.75,15.45,13.65,35.60,120.08,
06/01/2021,01:08:16.28,2.93,-979.98,-175.78,0.18,1.28,-0.30,-36.75,15.45,13.65,35.22,120.08,
06/01/2021,01:08:16.29,8.30,-988.28,-172.85,1.28,3.41,-2.44,-38.85,15.75,14.85,35.27,120.08,
06/01/2021,01:08:16.30,-6.35,-989.75,-183.59,0.24,2.26,0.49,-38.85,15.75,14.85,35.22,120.08,
06/01/2021,01:08:16.30,2.44,-985.35,-177.73,-1.65,1.65,-2.50,-37.95,16.65,13.65,35.60,120.08,
06/01/2021,01:08:16.31,3.42,-988.28,-187.50,0.61,2.32,-3.48,-37.95,16.65,13.65,35.36,120.08,
06/01/2021,01:08:16.31,0.00,-988.28,-180.66,-0.55,1.89,-2.38,-36.00,16.65,13.20,35.27,120.08,
06/01/2021,01:08:16.32,1.46,-980.96,-199.71,0.37,2.99,-3.90,-36.00,16.65,13.20,35.46,120.08,
06/01/2021,01:08:16.33,3.42,-980.47,-185.06,-1.40,-0.06,-2.13,-34.80,15.75,13.50,35.55,120.08,
06/01/2021,01:08:16.34,3.42,-990.23,-185.55,-0.67,1.77,-1.28,-34.80,15.75,13.50,35.55,120.08,
06/01/2021,01:08:16.35,14.16,-995.12,-182.62,0.49,1.52,-0.30,-37.50,15.90,15.15,35.27,120.08,
06/01/2021,01:08:16.35,9.28,-989.75,-186.04,1.28,1.04,0.37,-37.50,15.90,15.15,35.22,120.08,
06/01/2021,01:08:16.36,12.70,-985.35,-179.69,1.04,-0.12,-1.22,-37.50,15.90,15.15,35.36,120.08,
06/01/2021,01:08:16.37,17.09,-984.38,-181.15,0.12,2.07,0.98,-38.40,16.80,16.80,35.17,120.08,
06/01/2021,01:08:16.38,5.37,-988.77,-177.25,1.28,2.13,1.65,-38.40,16.80,16.80,35.36,120.08,
06/01/2021,01:08:16.39,2.44,-989.75,-173.83,0.30,1.10,0.12,-37.50,15.90,13.65,35.55,120.08,
06/01/2021,01:08:16.39,0.49,-978.03,-185.06,-1.83,1.77,-2.62,-37.50,15.90,13.65,35.36,120.08,
06/01/2021,01:08:16.40,-0.49,-994.14,-169.92,-0.91,1.77,-0.55,-36.15,16.50,13.05,35.07,120.08,
06/01/2021,01:08:16.41,5.86,-985.84,-188.48,0.37,1.40,-1.40,-37.20,15.15,15.90,35.55,120.08,
06/01/2021,01:08:16.42,-2.44,-985.84,-184.57,-2.07,2.38,-0.18,-37.20,15.15,15.90,35.55,120.08,
06/01/2021,01:08:16.42,0.98,-982.42,-187.01,1.34,0.73,-1.04,-37.20,15.15,15.90,35.27,120.08,
06/01/2021,01:08:16.43,5.86,-980.47,-186.04,0.37,1.65,-0.85,-37.20,15.15,15.90,35.46,120.08,
06/01/2021,01:08:16.44,2.93,-985.35,-187.01,0.18,0.37,-1.04,-37.35,18.00,13.50,35.60,120.08,
06/01/2021,01:08:16.44,7.81,-990.72,-176.76,-1.83,1.28,-1.46,-37.35,18.00,13.50,34.93,120.08,
06/01/2021,01:08:16.46,-0.98,-981.93,-176.27,-1.95,1.95,1.40,-38.10,16.50,13.80,35.60,120.08,
06/01/2021,01:08:16.46,-6.84,-986.33,-181.64,-0.37,2.99,-0.91,-38.10,16.50,13.80,35.17,120.08,
06/01/2021,01:08:16.47,10.74,-995.12,-187.01,-1.95,2.01,-0.12,-37.20,16.65,15.90,35.60,120.08,
06/01/2021,01:08:16.47,9.28,-982.91,-185.06,-0.12,1.40,0.00,-37.65,15.30,12.30,35.46,120.08,
06/01/2021,01:08:16.51,8.30,-994.14,-191.41,1.59,3.48,0.37,-38.55,15.15,14.40,35.46,120.08,
06/01/2021,01:08:16.53,3.91,-982.42,-179.69,0.61,1.59,-1.77,-39.90,15.75,16.35,35.36,120.08,
06/01/2021,01:08:16.54,15.62,-995.12,-170.90,-2.93,1.40,-1.40,-39.90,15.75,16.35,35.27,120.08,
06/01/2021,01:08:16.54,6.35,-989.75,-179.20,-1.22,2.07,-0.12,-39.90,15.75,16.35,35.46,120.08,
06/01/2021,01:08:16.55,-4.88,-983.40,-191.89,-1.40,2.62,-1.04,-37.20,17.10,12.90,35.55,120.08,
06/01/2021,01:08:16.55,12.70,-978.52,-186.04,-0.30,-0.43,-0.61,-37.20,16.20,13.20,35.27,120.08,
06/01/2021,01:08:16.56,16.11,-974.61,-186.04,1.16,0.98,-0.30,-37.20,16.20,13.20,35.41,120.08,
06/01/2021,01:08:16.58,2.44,-995.61,-180.66,-0.43,1.34,-1.10,-37.20,15.90,16.50,35.55,120.08,
06/01/2021,01:08:16.58,8.79,-990.72,-178.22,0.67,1.34,-1.28,-37.20,15.90,16.50,35.36,120.08,
06/01/2021,01:08:16.59,1.46,-989.75,-184.08,2.20,0.43,0.37,-37.65,16.05,12.30,35.36,120.08,
06/01/2021,01:08:16.59,12.70,-989.26,-187.01,-0.73,-0.06,4.21,-37.65,16.05,12.30,35.46,120.08,
06/01/2021,01:08:16.60,6.35,-991.21,-186.52,-0.79,1.95,-1.10,-36.45,17.10,13.95,35.17,120.08,
06/01/2021,01:08:16.61,2.44,-987.30,-184.57,0.37,1.10,-1.40,-36.45,17.10,13.95,35.55,120.08,
06/01/2021,01:08:16.62,7.32,-984.86,-177.73,0.24,2.01,1.22,-38.25,16.20,15.15,35.60,120.08,
06/01/2021,01:08:16.63,14.16,-981.45,-185.55,-2.01,2.62,-0.12,-38.25,16.20,15.15,35.17,120.08,
06/01/2021,01:08:16.63,7.81,-984.86,-184.08,-2.26,-0.49,-1.28,-38.25,16.20,15.15,35.27,120.08,
06/01/2021,01:08:16.64,15.62,-979.00,-191.89,-0.79,-0.61,0.85,-37.50,15.45,12.90,35.36,120.08,
06/01/2021,01:08:16.65,-2.93,-974.12,-187.01,-2.93,2.50,1.71,-35.70,15.45,13.20,35.36,120.08,
06/01/2021,01:08:16.66,-2.44,-971.68,-181.15,-0.67,-1.83,-0.37,-38.25,15.90,15.45,35.55,120.08,
06/01/2021,01:08:16.66,7.81,-984.38,-180.18,-1.40,0.37,-1.65,-38.25,15.90,15.45,35.46,120.08,
06/01/2021,01:08:16.67,-8.79,-992.19,-175.78,-2.13,0.91,-1.16,-38.25,15.45,12.60,35.27,120.08,
06/01/2021,01:08:16.68,-13.67,-999.51,-180.18,1.77,1.40,2.93,-37.35,16.50,13.05,35.55,120.08,
06/01/2021,01:08:16.68,13.67,-988.77,-183.59,1.16,0.55,2.01,-37.35,16.50,13.05,35.36,120.08,
06/01/2021,01:08:16.70,6.35,-983.40,-169.43,0.37,-1.10,2.99,-38.85,15.30,13.05,35.27,120.08,
06/01/2021,01:08:16.70,9.28,-986.82,-190.43,-1.52,-0.73,1.77,-38.85,15.30,13.05,35.46,120.08,
06/01/2021,01:08:16.71,11.72,-979.98,-199.71,-1.34,1.10,2.68,-38.40,16.05,14.25,35.46,120.08,
06/01/2021,01:08:16.71,-4.39,-986.33,-173.83,-0.43,0.61,-1.59,-38.40,16.05,14.25,35.55,120.08,
06/01/2021,01:08:16.72,6.35,-1003.91,-180.18,-1.28,1.04,1.77,-38.40,16.05,14.25,35.55,120.08,
06/01/2021,01:08:16.74,-1.46,-987.30,-190.92,-0.98,-0.12,-0.43,-37.50,17.10,13.65,35.27,120.08,
06/01/2021,01:08:16.74,-3.91,-985.84,-198.73,1.77,0.73,0.98,-37.50,17.10,13.65,35.55,120.08,
06/01/2021,01:08:16.75,7.32,-999.02,-193.85,-2.80,1.16,0.43,-37.35,16.80,12.75,35.03,120.08,
06/01/2021,01:08:16.75,-2.44,-985.35,-190.43,0.98,-0.67,2.13,-37.35,16.80,12.75,35.27,120.08,
06/01/2021,01:08:16.76,-5.37,-984.86,-180.18,-2.13,0.73,1.10,-37.35,17.25,14.25,35.46,120.08,
06/01/2021,01:08:16.78,0.49,-979.49,-175.78,-0.30,3.17,2.32,-36.15,15.30,13.50,35.41,120.08,
06/01/2021,01:08:16.78,0.98,-990.72,-192.38,-0.55,0.67,2.62,-39.15,14.55,16.05,35.55,120.08,
06/01/2021,01:08:16.79,-3.42,-997.56,-171.39,-1.59,0.49,1.34,-37.50,15.45,13.95,35.22,120.08,
06/01/2021,01:08:16.79,4.88,-989.75,-180.18,0.91,0.67,0.67,-37.50,15.45,13.95,35.46,120.08,
06/01/2021,01:08:16.80,1.46,-987.30,-170.90,0.55,0.98,1.10,-36.75,16.65,12.15,35.55,120.08,
06/01/2021,01:08:16.80,2.93,-996.09,-181.64,-0.61,2.07,0.79,-36.75,16.65,12.15,35.22,120.08,
06/01/2021,01:08:16.82,6.84,-981.45,-172.36,-0.24,0.61,2.74,-38.25,15.90,14.70,35.36,120.08,
06/01/2021,01:08:16.83,11.72,-979.98,-182.13,1.40,0.37,0.12,-38.25,15.90,14.70,35.17,120.08,
06/01/2021,01:08:16.83,2.44,-988.77,-185.55,0.98,1.71,1.59,-38.25,15.90,14.70,35.55,120.08,
06/01/2021,01:08:16.84,-5.86,-982.91,-189.45,0.18,2.32,3.41,-38.25,15.90,14.70,35.27,120.08,
06/01/2021,01:08:16.84,-5.37,-993.65,-184.08,0.73,3.84,0.55,-36.45,16.65,13.65,35.36,120.08,
06/01/2021,01:08:16.86,11.23,-991.21,-178.71,1.59,1.22,2.32,-37.65,16.05,12.30,35.36,120.08,
06/01/2021,01:08:16.86,9.77,-985.35,-185.55,1.52,-0.61,1.40,-36.75,15.45,15.45,35.55,120.08,
06/01/2021,01:08:16.87,1.46,-984.86,-183.11,-0.43,1.22,-0.55,-37.50,16.20,13.65,35.36,120.08,
06/01/2021,01:08:16.88,7.81,-985.84,-186.04,-0.55,-0.73,1.10,-37.50,16.20,13.65,35.07,120.08,
06/01/2021,01:08:16.88,-2.44,-979.49,-179.20,0.91,2.56,2.20,-36.60,16.50,13.05,35.46,120.08,
06/01/2021,01:08:16.89,-6.84,-983.40,-178.22,0.85,0.24,2.26,-36.60,16.50,13.05,35.22,120.08,
06/01/2021,01:08:16.90,2.93,-981.93,-189.45,1.89,0.67,1.22,-36.75,16.65,13.20,35.46,120.08,
06/01/2021,01:08:16.91,-1.95,-984.86,-173.34,2.01,0.37,0.61,-36.75,16.65,13.20,35.60,120.08,
06/01/2021,01:08:16.91,3.42,-975.59,-181.15,-2.26,0.06,-2.44,-38.40,15.30,14.55,35.60,120.08,
06/01/2021,01:08:16.92,-6.84,-988.28,-185.55,0.12,-0.24,1.10,-38.40,15.30,14.55,35.41,120.08,
06/01/2021,01:08:16.93,-8.30,-989.26,-183.11,-0.61,0.06,0.61,-38.40,15.30,14.55,35.27,120.08,
06/01/2021,01:08:16.94,-5.37,-984.38,-176.27,-1.46,1.52,0.67,-38.25,14.70,15.45,35.27,120.08,
06/01/2021,01:08:16.95,9.28,-992.19,-179.20,-3.84,0.98,0.49,-38.25,14.70,15.45,35.22,120.08,
06/01/2021,01:08:16.95,-3.42,-974.12,-171.88,0.12,-1.52,1.34,-36.45,16.20,13.65,35.17,120.08,
06/01/2021,01:08:16.96,-1.46,-973.63,-182.13,-1.28,-0.24,0.61,-36.45,16.20,13.65,35.36,120.08,
06/01/2021,01:08:16.96,6.84,-977.05,-171.39,-0.79,1.40,1.22,-37.20,16.20,15.90,35.36,120.08,
06/01/2021,01:08:16.97,-1.95,-998.05,-176.76,0.06,-0.30,2.07,-36.00,17.85,13.20,35.27,120.08,
06/01/2021,01:08:17.01,-9.28,-988.28,-182.13,1.22,0.24,0.67,-37.65,16.05,15.60,35.27,120.08,
06/01/2021,01:08:17.03,-6.35,-987.30,-182.13,-1.28,-0.06,0.30,-37.50,15.45,15.45,35.60,120.08,
06/01/2021,01:08:17.03,-11.72,-996.58,-181.64,1.65,-0.49,0.30,-37.65,16.05,14.25,35.36,120.08,
06/01/2021,01:08:17.04,4.39,-983.40,-179.69,0.67,0.91,1.10,-37.65,16.05,14.25,35.07,120.08,
06/01/2021,01:08:17.04,3.91,-980.47,-187.50,0.67,0.55,2.62,-36.75,16.20,13.20,35.36,120.08,
06/01/2021,01:08:17.06,7.32,-983.40,-175.78,-0.73,0.12,3.05,-36.75,15.45,13.65,35.07,120.08,
06/01/2021,01:08:17.07,-3.91,-992.19,-180.66,0.98,0.61,-0.18,-38.40,16.05,14.25,35.55,120.08,
06/01/2021,01:08:17.07,-1.95,-975.10,-179.69,-0.37,-1.83,2.26,-38.40,16.05,14.25,35.36,120.08,
06/01/2021,01:08:17.08,-6.84,-986.82,-182.13,-1.77,0.98,2.99,-36.90,15.75,13.80,35.22,120.08,
06/01/2021,01:08:17.08,-3.91,-983.40,-188.96,-2.32,1.10,0.30,-36.90,15.75,13.80,35.27,120.08,
06/01/2021,01:08:17.10,-18.07,-985.35,-188.48,-1.34,-1.04,0.55,-38.10,15.30,14.25,35.36,120.08,
06/01/2021,01:08:17.10,-14.16,-996.58,-181.64,0.18,-0.24,-2.44,-38.10,15.30,14.25,35.36,120.08,
06/01/2021,01:08:17.11,-6.35,-979.49,-184.08,-0.30,1.04,-0.06,-38.10,15.30,14.25,35.60,120.08,
06/01/2021,01:08:17.12,-21.00,-990.23,-187.50,1.22,0.55,2.80,-36.00,16.65,13.95,35.60,120.08,
06/01/2021,01:08:17.12,-20.02,-986.33,-187.50,0.91,1.89,1.83,-36.00,16.65,13.95,35.46,120.08,
06/01/2021,01:08:17.13,-16.60,-993.16,-174.32,-0.37,-1.77,2.32,-36.15,17.55,14.25,35.36,120.08,
06/01/2021,01:08:17.14,-15.14,-983.89,-181.15,0.24,1.22,1.77,-36.45,15.90,13.20,35.46,120.08,
