rtcDate,rtcTime,aX,aY,aZ,gX,gY,gZ,mX,mY,mZ,imu_degC,output_Hz,
06/01/2021,01:08:09.45,102.05,-979.00,271.00,1.52,-0.06,0.30,-184.50,-61.95,-48.30,32.73,134.41,
06/01/2021,01:08:09.50,90.33,-979.49,260.74,0.24,-0.12,0.67,-183.90,-61.35,-48.15,32.92,134.41,
06/01/2021,01:08:09.51,92.29,-979.49,265.14,1.10,0.55,-0.37,-184.35,-60.60,-48.15,32.97,134.41,
06/01/2021,01:08:09.51,98.63,-974.12,263.67,-0.85,-1.04,-1.22,-184.35,-60.60,-48.15,32.73,134.41,
06/01/2021,01:08:09.52,86.43,-968.26,266.11,-0.37,-1.16,1.77,-183.30,-61.35,-47.85,32.92,134.41,
06/01/2021,01:08:09.53,104.98,-991.21,259.28,0.30,0.18,1.40,-183.00,-60.90,-48.00,32.82,134.41,
06/01/2021,01:08:09.54,97.17,-968.75,245.12,0.49,-0.67,0.98,-183.00,-60.90,-48.00,32.73,134.41,
06/01/2021,01:08:09.54,92.77,-981.45,262.21,1.46,2.44,2.20,-183.00,-60.90,-48.00,32.73,134.41,
06/01/2021,01:08:09.55,100.10,-973.63,264.16,-0.79,-0.30,2.74,-183.00,-61.20,-49.05,32.63,134.41,
06/01/2021,01:08:09.55,91.80,-970.21,259.77,0.06,1.28,2.32,-183.00,-61.20,-49.05,32.77,134.41,
06/01/2021,01:08:09.57,85.94,-973.63,251.95,-1.16,0.30,1.46,-184.95,-59.70,-48.75,32.82,134.41,
06/01/2021,01:08:09.57,98.14,-962.89,263.67,0.85,1.77,-0.55,-184.95,-59.70,-48.75,32.73,134.41,
06/01/2021,01:08:09.57,108.40,-976.56,260.25,-0.91,2.26,-1.46,-184.65,-58.65,-47.85,32.82,134.41,
06/01/2021,01:08:09.58,89.36,-965.33,260.74,1.10,1.04,1.59,-184.65,-58.65,-47.85,32.63,134.41,
06/01/2021,01:08:09.58,99.12,-960.94,262.70,-0.67,0.06,-0.43,-184.65,-58.65,-47.85,32.77,134.41,
06/01/2021,01:08:09.59,97.17,-979.00,264.16,-0.18,0.18,-0.30,-184.65,-58.65,-47.85,32.92,134.41,
06/01/2021,01:08:09.60,103.52,-983.40,252.44,1.28,1.22,2.26,-183.60,-61.35,-48.60,32.97,134.41,
06/01/2021,01:08:09.61,88.38,-974.61,259.28,0.55,-0.91,-2.56,-184.65,-61.05,-47.85,32.77,134.41,
06/01/2021,01:08:09.61,96.19,-980.47,272.46,-2.26,0.85,-0.24,-184.65,-61.05,-47.85,32.82,134.41,
06/01/2021,01:08:09.62,98.63,-962.89,262.21,0.67,1.34,2.32,-183.45,-61.65,-47.70,32.58,134.41,
06/01/2021,01:08:09.62,88.87,-970.70,263.67,-1.16,1.34,-0.67,-183.45,-61.65,-47.70,32.73,134.41,
06/01/2021,01:08:09.64,95.70,-973.14,255.37,-1.22,-0.24,2.20,-183.60,-60.30,-47.85,33.06,134.41,
06/01/2021,01:08:09.64,96.19,-970.70,263.67,0.30,0.18,1.71,-183.60,-60.30,-47.85,32.73,134.41,
06/01/2021,01:08:09.64,98.63,-967.77,259.77,0.49,-1.65,0.37,-184.65,-61.35,-48.15,32.63,134.41,
06/01/2021,01:08:09.65,97.17,-976.56,260.74,0.79,2.50,1.22,-184.65,-61.35,-48.15,32.58,134.41,
06/01/2021,01:08:09.65,100.59,-965.33,260.74,-0.55,-0.49,-0.55,-186.15,-61.80,-48.90,32.73,134.41,
06/01/2021,01:08:09.67,104.00,-973.14,254.39,1.16,0.06,-0.85,-184.95,-60.45,-46.95,32.73,134.41,
06/01/2021,01:08:09.67,104.00,-965.33,252.93,1.65,-1.59,0.30,-184.95,-60.45,-46.95,32.77,134.41,
06/01/2021,01:08:09.68,106.45,-967.29,262.21,0.55,1.28,-1.10,-184.20,-61.65,-48.75,32.92,134.41,
06/01/2021,01:08:09.68,107.42,-974.12,258.30,-0.24,-0.98,1.59,-184.20,-61.65,-48.75,32.77,134.41,
06/01/2021,01:08:09.69,98.63,-982.91,265.62,-0.06,2.01,1.83,-183.30,-60.60,-47.85,32.63,134.41,
06/01/2021,01:08:09.70,87.40,-983.40,254.39,2.07,-0.85,0.55,-183.75,-62.40,-47.70,32.58,134.41,
06/01/2021,01:08:09.71,93.75,-973.14,259.28,0.43,0.49,-3.23,-183.75,-62.40,-47.70,32.53,134.41,
06/01/2021,01:08:09.71,96.68,-971.68,248.54,-0.79,0.55,3.05,-183.75,-62.40,-47.70,32.73,134.41,
06/01/2021,01:08:09.72,96.68,-976.56,263.67,-1.77,0.12,-0.55,-182.85,-61.80,-48.60,32.97,134.41,
06/01/2021,01:08:09.72,94.73,-969.73,268.07,0.73,-1.59,1.65,-182.85,-61.80,-48.60,32.44,134.41,
06/01/2021,01:08:09.72,101.56,-981.45,258.79,0.85,-2.13,-1.77,-184.20,-60.45,-49.05,32.92,134.41,
06/01/2021,01:08:09.74,92.77,-968.26,260.25,0.73,-1.83,0.43,-183.90,-61.35,-48.15,32.77,134.41,
06/01/2021,01:08:09.74,94.73,-960.45,255.86,0.18,-0.79,-1.10,-183.90,-61.35,-48.15,32.92,134.41,
06/01/2021,01:08:09.75,100.10,-970.21,252.93,-1.71,-1.59,-0.18,-183.30,-60.60,-47.85,32.44,134.41,
06/01/2021,01:08:09.75,95.70,-966.31,253.91,-0.30,-1.40,1.46,-183.30,-60.60,-47.85,32.73,134.41,
06/01/2021,01:08:09.76,91.31,-966.80,250.00,-0.37,-1.71,-0.18,-183.30,-60.60,-47.85,32.63,134.41,
06/01/2021,01:08:09.77,96.19,-961.43,253.91,1.16,-0.43,1.83,-183.45,-61.20,-48.00,32.58,134.41,
06/01/2021,01:08:09.78,98.63,-967.29,261.23,-0.49,1.34,2.26,-184.50,-62.70,-47.25,32.73,134.41,
06/01/2021,01:08:09.78,102.54,-968.75,258.30,-0.18,0.55,1.28,-184.50,-62.70,-47.25,32.92,134.41,
06/01/2021,01:08:09.79,85.94,-979.98,272.95,-0.30,-1.10,1.95,-184.35,-61.35,-48.60,32.73,134.41,
06/01/2021,01:08:09.79,114.26,-977.54,264.16,-0.55,0.18,2.74,-184.35,-61.35,-48.60,32.92,134.41,
06/01/2021,01:08:09.81,89.84,-960.94,237.79,-0.12,-1.77,0.61,-185.10,-62.25,-47.40,32.73,134.41,
06/01/2021,01:08:09.81,93.75,-972.66,249.02,-1.22,-0.79,-0.67,-185.10,-62.25,-47.40,32.73,134.41,
06/01/2021,01:08:09.81,102.05,-970.21,256.35,-0.67,0.24,2.62,-185.10,-62.25,-47.40,32.97,134.41,
06/01/2021,01:08:09.82,90.82,-971.19,260.74,-0.79,0.91,-0.91,-184.65,-60.30,-48.60,32.97,134.41,
06/01/2021,01:08:09.82,91.80,-960.45,262.21,0.61,0.43,1.10,-184.65,-60.30,-48.60,32.77,134.41,
06/01/2021,01:08:09.84,98.14,-967.29,255.37,0.18,-0.67,4.09,-184.50,-62.40,-47.25,32.77,134.41,
06/01/2021,01:08:09.84,103.52,-978.03,263.18,-1.71,-0.67,1.40,-184.50,-62.40,-47.25,32.73,134.41,
06/01/2021,01:08:09.85,100.59,-971.19,256.84,0.43,-2.62,0.91,-184.35,-61.05,-48.90,32.82,134.41,
06/01/2021,01:08:09.85,92.77,-979.98,267.09,0.43,1.16,0.67,-184.35,-61.05,-48.90,32.82,134.41,
06/01/2021,01:08:09.86,85.94,-970.21,247.56,0.37,3.29,-1.71,-183.60,-60.60,-47.40,32.77,134.41,
06/01/2021,01:08:09.86,83.50,-972.17,256.35,-0.49,-1.83,2.32,-183.60,-60.60,-47.40,32.77,134.41,
06/01/2021,01:08:09.88,94.24,-971.68,252.44,0.98,2.07,-0.49,-183.00,-61.95,-48.30,32.63,134.41,
06/01/2021,01:08:09.88,100.59,-991.21,254.39,0.67,-1.65,0.98,-183.00,-61.95,-48.30,32.77,134.41,
06/01/2021,01:08:09.88,110.35,-986.82,264.65,-1.77,1.65,1.65,-183.00,-61.95,-48.30,32.92,134.41,
06/01/2021,01:08:09.89,94.24,-970.21,259.28,-0.73,-0.55,0.67,-184.65,-61.05,-49.65,32.77,134.41,
06/01/2021,01:08:09.89,101.56,-965.82,268.07,-0.06,-0.91,-0.98,-184.65,-61.05,-49.65,32.73,134.41,
06/01/2021,01:08:09.91,103.03,-966.31,252.44,-0.18,0.49,0.79,-183.45,-61.65,-48.30,32.44,134.41,
06/01/2021,01:08:09.91,101.07,-961.91,260.74,0.85,0.12,1.40,-183.45,-61.65,-48.30,32.73,134.41,
06/01/2021,01:08:09.92,87.40,-967.29,262.21,0.12,0.73,3.35,-183.90,-61.35,-49.35,32.92,134.41,
06/01/2021,01:08:09.92,96.19,-970.70,253.42,-0.43,-2.80,0.37,-183.90,-61.35,-49.35,32.73,134.41,
06/01/2021,01:08:09.93,99.61,-970.21,254.88,1.16,0.18,-0.37,-183.90,-61.35,-49.35,32.58,134.41,
06/01/2021,01:08:09.94,88.87,-980.96,250.98,2.38,0.24,-2.20,-184.95,-61.65,-48.30,32.77,134.41,
06/01/2021,01:08:09.95,97.17,-968.26,257.32,-1.83,0.12,0.00,-184.35,-61.35,-47.85,32.77,134.41,
06/01/2021,01:08:09.95,100.59,-980.96,255.37,1.04,0.43,0.00,-184.35,-61.35,-47.85,32.73,134.41,
06/01/2021,01:08:09.95,98.63,-969.24,256.35,-0.79,-2.13,-1.28,-184.35,-61.35,-47.85,32.97,134.41,
06/01/2021,01:08:09.96,90.82,-976.56,266.60,0.24,-3.78,1.52,-183.45,-60.45,-48.30,32.77,134.41,
06/01/2021,01:08:10.00,96.68,-977.05,249.02,1.77,0.24,1.89,-185.25,-60.90,-46.95,32.73,134.41,
06/01/2021,01:08:10.02,98.63,-971.68,269.53,1.10,-0.73,0.00,-184.50,-63.15,-48.30,32.77,134.41,
06/01/2021,01:08:10.02,92.29,-974.12,262.70,1.10,1.95,0.55,-184.50,-63.15,-48.30,32.77,134.41,
06/01/2021,01:08:10.02,98.63,-971.68,258.79,0.30,-2.07,2.56,-184.50,-63.15,-48.30,32.53,134.41,
06/01/2021,01:08:10.03,104.98,-965.82,252.44,-0.24,0.00,-1.22,-184.50,-63.15,-48.30,32.82,134.41,
06/01/2021,01:08:10.03,102.05,-966.80,256.84,-0.61,-1.22,0.43,-184.50,-63.15,-48.30,32.77,134.41,
06/01/2021,01:08:10.05,93.75,-960.94,253.42,0.98,-0.49,-2.44,-183.75,-62.40,-48.75,32.97,134.41,
06/01/2021,01:08:10.05,108.40,-979.49,256.84,1.52,0.61,-1.40,-183.75,-62.40,-48.75,32.73,134.41,
06/01/2021,01:08:10.06,98.14,-970.70,261.72,-0.18,-1.28,0.91,-184.50,-60.45,-49.50,32.82,134.41,
06/01/2021,01:08:10.06,97.66,-979.98,268.07,0.30,0.61,-3.05,-184.50,-60.45,-49.50,32.73,134.41,
06/01/2021,01:08:10.07,94.73,-970.70,258.79,0.24,1.89,0.98,-183.60,-61.35,-48.60,32.82,134.41,
06/01/2021,01:08:10.10,97.17,-984.38,261.72,0.91,-1.40,0.55,-184.65,-61.35,-47.10,32.82,134.41,
06/01/2021,01:08:10.10,98.14,-976.07,266.11,-0.67,2.99,-0.37,-184.65,-61.35,-47.10,32.82,134.41,
06/01/2021,01:08:10.11,103.03,-967.29,260.74,-2.50,0.30,-1.34,-184.95,-61.65,-46.50,32.92,134.41,
06/01/2021,01:08:10.11,92.77,-973.14,262.21,-0.30,-3.35,1.16,-184.95,-61.65,-46.50,32.63,134.41,
06/01/2021,01:08:10.12,95.70,-971.68,248.05,1.89,-0.24,1.65,-182.55,-60.60,-49.35,32.82,134.41,
06/01/2021,01:08:10.13,106.93,-979.49,260.25,-0.49,-2.50,0.73,-183.45,-61.65,-46.50,32.73,134.41,
06/01/2021,01:08:10.14,97.66,-977.54,270.51,1.40,-1.46,1.40,-185.10,-61.35,-47.10,33.11,134.41,
06/01/2021,01:08:10.14,104.98,-985.84,263.67,-0.18,1.22,0.18,-185.10,-61.35,-47.10,32.73,134.41,
06/01/2021,01:08:10.15,95.21,-973.14,249.02,0.06,0.24,-0.98,-185.10,-61.35,-47.10,32.73,134.41,
06/01/2021,01:08:10.15,97.66,-979.98,260.74,0.67,-0.67,-0.79,-185.10,-61.35,-47.10,32.77,134.41,
06/01/2021,01:08:10.16,104.49,-983.89,264.65,0.00,0.73,2.38,-183.90,-61.35,-48.60,32.82,134.41,
06/01/2021,01:08:10.17,86.43,-967.29,253.42,0.85,-0.37,1.65,-183.75,-61.20,-48.00,32.73,134.41,
06/01/2021,01:08:10.17,100.59,-965.33,260.25,3.29,-0.43,0.67,-183.75,-61.20,-48.00,32.82,134.41,
06/01/2021,01:08:10.18,87.40,-969.24,270.02,0.85,0.18,0.67,-184.20,-60.00,-48.75,32.82,134.41,
06/01/2021,01:08:10.18,98.63,-980.96,266.11,0.30,-0.55,1.65,-184.20,-60.00,-48.75,32.92,134.41,
06/01/2021,01:08:10.19,105.96,-973.14,259.28,0.37,-1.34,1.77,-183.00,-60.90,-48.30,32.73,134.41,
06/01/2021,01:08:10.20,86.43,-975.59,256.84,0.00,-1.16,0.43,-183.00,-60.90,-48.30,32.73,134.41,
06/01/2021,01:08:10.21,89.84,-965.33,266.60,0.12,3.66,1.65,-184.20,-61.20,-48.30,32.77,134.41,
06/01/2021,01:08:10.21,100.59,-975.10,254.39,-1.65,-0.12,-0.49,-184.20,-61.20,-48.30,32.73,134.41,
06/01/2021,01:08:10.22,91.80,-959.47,259.28,-0.85,0.18,-0.12,-184.35,-61.35,-48.90,32.73,134.41,
06/01/2021,01:08:10.22,104.98,-973.14,263.67,-0.06,-0.79,-0.67,-184.35,-61.35,-48.90,32.92,134.41,
06/01/2021,01:08:10.24,108.89,-973.14,262.70,0.12,0.12,0.00,-184.50,-61.95,-47.70,32.97,134.41,
06/01/2021,01:08:10.24,111.33,-977.05,259.28,-1.59,-0.12,1.16,-185.70,-61.65,-48.30,32.97,134.41,
06/01/2021,01:08:10.24,103.52,-971.19,252.44,-0.30,-2.50,-0.61,-185.70,-61.65,-48.30,32.77,134.41,
06/01/2021,01:08:10.25,102.54,-972.66,248.54,-1.95,-0.37,1.28,-183.75,-60.45,-47.70,32.82,134.41,
06/01/2021,01:08:10.25,90.33,-973.14,258.79,0.18,-1.40,1.34,-183.75,-60.45,-47.70,32.73,134.41,
06/01/2021,01:08:10.27,91.31,-980.96,250.49,0.18,-1.77,2.32,-184.20,-60.00,-47.70,32.97,134.41,
06/01/2021,01:08:10.27,96.19,-972.66,265.62,-0.37,0.18,2.32,-184.20,-60.00,-47.70,32.63,134.41,
06/01/2021,01:08:10.28,107.91,-973.14,253.91,1.34,-1.28,1.40,-183.30,-60.30,-48.60,32.82,134.41,
06/01/2021,01:08:10.28,93.75,-977.54,254.39,1.40,-1.04,0.73,-183.30,-60.30,-48.60,32.73,134.41,
06/01/2021,01:08:10.29,100.59,-971.68,252.93,1.59,-0.61,-0.85,-183.90,-60.60,-48.60,32.77,134.41,
06/01/2021,01:08:10.30,97.66,-977.54,249.51,-1.34,1.10,-0.12,-183.90,-61.35,-49.35,32.73,134.41,
06/01/2021,01:08:10.30,89.36,-978.03,254.88,-1.10,1.89,-3.11,-183.90,-61.35,-49.35,32.73,134.41,
06/01/2021,01:08:10.31,96.68,-974.61,255.86,1.22,0.85,-0.98,-183.45,-61.95,-48.00,32.77,134.41,
06/01/2021,01:08:10.31,99.61,-967.77,255.86,1.59,0.30,2.50,-183.45,-61.95,-48.00,32.77,134.41,
06/01/2021,01:08:10.32,97.66,-970.70,261.72,-0.43,-2.62,1.04,-183.45,-61.95,-48.00,32.58,134.41,
06/01/2021,01:08:10.33,100.59,-969.24,252.93,1.16,-1.46,0.98,-182.25,-62.70,-47.70,32.58,134.41,
06/01/2021,01:08:10.34,84.96,-974.12,254.88,-0.18,0.18,-2.74,-184.95,-61.65,-47.70,32.77,134.41,
06/01/2021,01:08:10.34,96.19,-973.14,260.25,0.85,-1.34,-1.65,-184.95,-61.65,-47.70,32.73,134.41,
06/01/2021,01:08:10.35,98.14,-976.07,261.23,-1.04,-3.66,-0.18,-184.20,-61.20,-47.70,33.06,134.41,
06/01/2021,01:08:10.35,98.63,-982.91,255.37,-0.12,-0.61,0.06,-184.20,-61.20,-47.70,32.44,134.41,
06/01/2021,01:08:10.36,93.75,-969.24,262.70,-0.12,2.07,-0.43,-184.50,-60.90,-48.00,32.73,134.41,
06/01/2021,01:08:10.37,102.05,-967.29,273.44,0.18,0.85,-0.98,-184.50,-60.90,-48.00,32.73,134.41,
06/01/2021,01:08:10.38,95.70,-967.77,266.60,1.34,0.61,-1.22,-184.50,-60.90,-48.00,32.97,134.41,
06/01/2021,01:08:10.38,98.14,-961.91,267.58,-0.30,0.00,0.30,-183.30,-61.80,-48.90,32.73,134.41,
06/01/2021,01:08:10.38,100.10,-961.43,267.09,0.30,0.67,1.65,-183.30,-61.80,-48.90,32.73,134.41,
06/01/2021,01:08:10.39,97.17,-966.80,259.77,2.13,0.85,-0.79,-183.45,-60.90,-47.70,32.63,134.41,
06/01/2021,01:08:10.40,99.61,-970.70,253.42,0.61,0.12,0.37,-184.50,-62.40,-48.75,32.58,134.41,
06/01/2021,01:08:10.41,93.26,-967.77,266.60,1.52,0.43,-3.17,-184.95,-62.40,-47.25,32.73,134.41,
06/01/2021,01:08:10.41,79.10,-979.00,274.41,2.13,-2.32,0.43,-184.95,-62.40,-47.25,33.06,134.41,
06/01/2021,01:08:10.42,91.31,-967.29,259.77,0.43,0.43,0.24,-184.95,-62.40,-47.25,32.92,134.42,
06/01/2021,01:08:10.42,103.03,-971.19,268.55,-1.28,1.16,0.73,-184.95,-62.40,-47.25,32.77,134.42,
06/01/2021,01:08:10.44,104.98,-967.77,265.62,0.12,-3.84,0.49,-183.90,-60.30,-47.40,32.92,134.41,
06/01/2021,01:08:10.44,95.70,-972.66,271.97,-0.37,-0.91,-1.10,-183.90,-60.30,-47.40,32.82,134.41,
06/01/2021,01:08:10.45,106.45,-963.87,257.32,-1.46,-2.26,-0.43,-183.90,-60.30,-47.40,32.77,134.42,
06/01/2021,01:08:10.45,107.91,-967.77,264.65,-0.98,0.55,-1.71,-185.70,-61.20,-49.50,33.11,134.42,
06/01/2021,01:08:10.45,102.54,-969.73,271.00,-0.55,-1.40,-1.71,-185.70,-61.20,-49.50,32.58,134.42,
06/01/2021,01:08:10.47,106.93,-966.31,249.51,0.43,-2.07,-0.30,-183.30,-61.35,-47.85,33.06,134.42,
06/01/2021,01:08:10.47,99.12,-970.70,254.39,0.00,-0.43,0.73,-183.30,-61.35,-47.85,32.77,134.42,
06/01/2021,01:08:10.48,101.56,-972.17,257.81,1.71,-1.34,0.37,-185.70,-60.90,-48.00,32.58,134.42,
06/01/2021,01:08:10.56,102.54,-970.21,275.88,1.34,-3.60,-2.13,-184.35,-62.55,-48.15,32.39,134.41,
06/01/2021,01:08:10.57,106.93,-975.10,264.65,0.49,-2.68,2.32,-184.50,-60.00,-48.30,32.77,134.41,
06/01/2021,01:08:10.57,107.42,-967.29,251.46,0.61,-2.87,-1.10,-184.50,-60.00,-48.30,32.82,134.41,
06/01/2021,01:08:10.59,100.10,-983.40,258.30,2.44,1.52,-1.95,-183.90,-62.55,-48.15,32.73,134.41,
06/01/2021,01:08:10.59,98.14,-963.87,268.07,1.59,-2.44,0.98,-183.90,-62.55,-48.15,32.73,134.41,
06/01/2021,01:08:10.60,104.49,-969.24,257.81,-1.22,-3.84,1.77,-184.50,-60.45,-48.30,32.58,134.41,
06/01/2021,01:08:10.60,108.40,-975.59,273.93,-0.73,-1.83,-2.74,-184.50,-60.45,-48.30,32.77,134.41,
06/01/2021,01:08:10.61,97.17,-957.03,255.37,1.71,-1.46,-0.43,-183.45,-60.90,-48.00,32.92,134.41,
06/01/2021,01:08:10.62,104.00,-963.87,271.00,-0.43,-0.43,-1.34,-185.25,-61.95,-46.50,32.77,134.41,
06/01/2021,01:08:10.63,99.61,-985.84,271.00,0.37,0.12,-0.98,-185.25,-61.95,-46.50,32.92,134.41,
06/01/2021,01:08:10.63,115.23,-972.66,264.16,1.65,-0.06,-0.18,-183.30,-60.60,-48.15,32.58,134.41,
06/01/2021,01:08:10.63,112.30,-978.03,278.81,1.28,-0.67,-0.18,-183.30,-60.60,-48.15,32.73,134.41,
06/01/2021,01:08:10.64,93.75,-980.96,262.21,-0.67,-0.06,-0.55,-183.30,-60.30,-48.15,32.77,134.41,
06/01/2021,01:08:10.65,104.49,-978.52,253.91,0.73,-1.83,-2.26,-183.90,-61.80,-47.40,32.73,134.41,
06/01/2021,01:08:10.66,100.59,-972.66,278.81,0.67,0.00,-1.40,-183.90,-61.80,-47.40,32.77,134.41,
06/01/2021,01:08:10.66,104.00,-967.29,254.39,-0.61,-0.49,-0.79,-183.90,-61.80,-47.40,32.58,134.41,
06/01/2021,01:08:10.67,104.98,-962.40,259.77,0.18,-1.04,-1.59,-184.20,-60.90,-49.05,32.73,134.41,
06/01/2021,01:08:10.67,107.42,-973.63,252.44,-0.49,-2.32,-1.59,-184.20,-60.90,-49.05,32.82,134.41,
06/01/2021,01:08:10.69,109.86,-967.77,262.70,0.37,0.00,-0.43,-184.65,-61.80,-48.30,32.82,134.41,
06/01/2021,01:08:10.69,104.49,-962.40,261.72,-0.37,-1.46,-0.79,-184.65,-61.80,-46.05,32.73,134.41,
06/01/2021,01:08:10.70,107.42,-977.05,257.32,0.73,1.65,-1.16,-184.65,-61.80,-46.05,32.73,134.41,
06/01/2021,01:08:10.70,99.12,-973.14,261.72,0.73,-1.77,0.73,-183.75,-59.70,-48.75,32.73,134.41,
06/01/2021,01:08:10.70,93.75,-988.77,263.67,0.49,-2.80,-1.04,-183.75,-59.70,-48.75,32.82,134.41,
06/01/2021,01:08:10.73,103.52,-972.66,257.81,-1.10,-2.07,-0.73,-185.40,-61.80,-49.65,32.58,134.41,
06/01/2021,01:08:10.73,103.03,-977.54,258.30,0.85,-1.83,-0.18,-185.25,-62.70,-47.70,32.63,134.41,
06/01/2021,01:08:10.73,87.40,-967.77,260.74,0.73,-0.85,0.55,-185.25,-62.70,-47.70,32.92,134.41,
06/01/2021,01:08:10.74,120.61,-976.07,272.46,0.79,0.06,0.55,-184.65,-60.60,-48.60,32.92,134.41,
06/01/2021,01:08:10.74,114.75,-971.68,268.55,0.49,-1.22,0.43,-184.65,-60.60,-48.60,32.77,134.41,
06/01/2021,01:08:10.75,107.42,-979.98,259.28,1.83,0.00,-1.10,-183.75,-60.45,-49.05,32.82,134.41,
06/01/2021,01:08:10.76,99.61,-954.59,266.11,0.30,-1.04,0.43,-183.75,-60.45,-49.05,32.73,134.41,
06/01/2021,01:08:10.77,103.52,-964.36,265.62,1.95,-0.43,0.85,-184.35,-61.35,-46.80,32.58,134.41,
06/01/2021,01:08:10.77,99.12,-964.36,250.00,0.85,-1.22,2.80,-184.35,-61.35,-46.80,32.73,134.41,
06/01/2021,01:08:10.78,103.03,-974.61,259.77,0.18,-2.44,-1.04,-183.75,-60.90,-46.80,32.82,134.41,
06/01/2021,01:08:10.78,101.56,-964.84,271.48,0.37,-2.56,-1.65,-183.75,-60.90,-49.05,32.58,134.41,
06/01/2021,01:08:10.80,116.21,-970.70,263.18,1.59,0.61,-2.56,-185.40,-60.60,-49.35,32.73,134.41,
06/01/2021,01:08:10.80,111.33,-971.68,265.14,-1.04,-0.43,-2.32,-185.25,-61.65,-48.00,32.73,134.41,
06/01/2021,01:08:10.80,107.42,-969.73,267.09,-2.20,1.04,-1.83,-185.25,-61.65,-48.00,32.73,134.41,
06/01/2021,01:08:10.81,114.75,-949.71,269.53,-1.16,-0.24,0.55,-185.25,-61.65,-48.00,32.73,134.41,
06/01/2021,01:08:10.81,113.77,-976.07,268.07,2.93,-2.93,-0.24,-185.25,-61.65,-48.00,32.73,134.41,
06/01/2021,01:08:10.83,104.49,-964.84,262.21,0.73,-0.98,-0.18,-183.90,-60.60,-48.60,32.73,134.41,
06/01/2021,01:08:10.83,105.47,-972.66,268.55,4.02,1.65,0.49,-183.90,-60.60,-48.60,32.73,134.41,
06/01/2021,01:08:10.84,107.42,-969.73,252.44,0.79,-1.28,0.24,-184.65,-61.05,-48.60,32.82,134.41,
06/01/2021,01:08:10.84,107.91,-966.80,263.67,-0.55,0.73,-2.01,-184.65,-61.05,-48.60,32.58,134.41,
06/01/2021,01:08:10.85,106.93,-975.10,259.28,0.37,0.73,-3.60,-183.90,-61.80,-49.35,32.63,134.41,
06/01/2021,01:08:10.86,117.19,-970.21,268.07,0.73,0.55,-3.23,-184.35,-61.35,-47.40,32.82,134.41,
06/01/2021,01:08:10.87,104.98,-968.26,272.46,-0.30,-0.18,1.71,-184.35,-61.35,-47.40,32.58,134.41,
06/01/2021,01:08:10.87,119.14,-967.29,251.95,0.00,2.20,1.77,-185.10,-61.80,-49.35,32.77,134.41,
06/01/2021,01:08:10.88,105.96,-972.66,269.04,-0.37,2.87,0.12,-185.10,-61.80,-49.35,32.97,134.41,
06/01/2021,01:08:10.88,111.82,-973.63,257.32,-0.43,-1.46,-1.59,-185.10,-61.80,-49.35,32.77,134.41,
06/01/2021,01:08:10.90,105.96,-969.73,265.62,0.98,0.00,-3.11,-185.10,-61.80,-46.80,32.92,134.41,
06/01/2021,01:08:10.90,105.96,-963.38,253.91,-0.67,-0.24,-0.18,-185.40,-59.85,-48.90,32.97,134.41,
06/01/2021,01:08:10.90,101.56,-965.33,269.04,-1.52,-0.24,-2.62,-185.40,-59.85,-48.90,33.06,134.41,
06/01/2021,01:08:10.91,108.40,-983.89,267.58,0.43,2.26,-0.91,-183.75,-60.45,-50.25,32.92,134.41,
06/01/2021,01:08:10.91,112.30,-963.87,254.39,-0.06,-0.30,-1.04,-183.75,-60.45,-50.25,32.73,134.41,
06/01/2021,01:08:10.92,107.91,-973.63,269.53,2.20,0.30,1.83,-184.50,-60.45,-49.50,32.73,134.41,
06/01/2021,01:08:10.93,113.28,-967.77,263.18,0.43,-0.55,-0.37,-184.50,-60.45,-49.50,32.77,134.41,
06/01/2021,01:08:10.94,108.40,-971.68,266.60,0.49,-1.71,-0.55,-184.50,-60.45,-49.50,32.92,134.41,
06/01/2021,01:08:10.94,111.33,-973.14,269.53,0.24,-1.59,-2.56,-184.65,-62.25,-48.60,32.77,134.41,
06/01/2021,01:08:10.95,91.80,-964.36,264.65,3.48,1.95,-3.05,-184.65,-62.25,-48.60,32.58,134.41,
06/01/2021,01:08:10.95,117.68,-978.03,271.48,-0.43,1.28,2.80,-184.50,-61.65,-48.30,32.92,134.41,
06/01/2021,01:08:10.97,119.14,-967.29,259.28,-0.61,-1.34,-2.38,-183.45,-61.20,-48.00,32.82,134.41,
06/01/2021,01:08:10.97,115.72,-957.52,261.72,0.49,0.49,-0.98,-184.65,-63.00,-48.60,32.73,134.41,
06/01/2021,01:08:10.97,101.07,-975.10,254.88,-1.28,-0.55,0.06,-184.65,-63.00,-48.60,32.73,134.41,
06/01/2021,01:08:10.98,113.28,-965.33,268.07,0.49,-1.71,-2.38,-184.65,-63.00,-48.60,32.58,134.41,
06/01/2021,01:08:10.98,112.79,-967.29,271.48,1.46,2.20,-2.07,-184.65,-63.00,-48.60,32.73,134.41,
06/01/2021,01:08:11.05,109.38,-971.19,268.55,2.56,1.34,-0.79,-185.25,-61.20,-48.30,32.58,134.41,
06/01/2021,01:08:11.06,110.84,-973.14,263.67,1.22,-3.54,-1.10,-186.00,-61.95,-48.00,32.58,134.41,
06/01/2021,01:08:11.06,114.26,-963.87,269.04,-0.18,1.46,-0.79,-186.00,-61.95,-48.00,32.73,134.41,
06/01/2021,01:08:11.07,115.72,-977.05,259.28,1.04,-2.20,0.24,-184.50,-60.45,-48.30,33.06,134.41,
06/01/2021,01:08:11.07,108.40,-985.35,274.41,1.65,0.61,-3.78,-184.50,-60.45,-48.30,32.73,134.41,
06/01/2021,01:08:11.09,121.09,-976.07,264.16,-0.98,-1.59,-1.34,-185.10,-61.05,-47.40,32.63,134.41,
06/01/2021,01:08:11.09,117.19,-959.96,262.70,0.91,-1.95,0.49,-185.10,-61.05,-47.40,32.82,134.41,
06/01/2021,01:08:11.10,105.96,-966.31,262.70,0.91,0.79,-1.34,-185.10,-61.05,-47.40,32.92,134.41,
06/01/2021,01:08:11.10,115.23,-964.36,252.93,0.12,1.22,-1.04,-185.10,-61.05,-47.40,32.73,134.41,
06/01/2021,01:08:11.11,106.45,-960.45,270.02,1.71,3.41,-1.95,-185.10,-61.05,-47.40,32.63,134.41,
06/01/2021,01:08:11.12,115.72,-966.31,260.74,1.10,1.34,-0.37,-185.25,-61.95,-47.25,32.77,134.41,
06/01/2021,01:08:11.13,105.47,-966.80,267.58,-1.40,-2.99,0.30,-185.25,-61.95,-47.25,33.06,134.41,
06/01/2021,01:08:11.13,102.05,-958.01,258.79,1.04,-3.90,-0.43,-184.35,-59.85,-47.10,32.63,134.41,
06/01/2021,01:08:11.14,120.61,-972.66,265.14,2.20,-2.20,-1.16,-184.35,-59.85,-47.10,32.58,134.41,
06/01/2021,01:08:11.14,127.44,-973.63,262.21,-0.55,-1.04,-1.40,-183.00,-59.25,-47.25,32.92,134.41,
06/01/2021,01:08:11.14,115.72,-958.98,263.67,1.52,-0.43,-1.59,-183.00,-59.25,-47.25,32.58,134.41,
06/01/2021,01:08:11.16,105.47,-978.52,269.04,-0.73,-0.55,0.18,-184.95,-60.90,-48.30,32.58,134.41,
06/01/2021,01:08:11.16,119.14,-971.68,275.39,0.79,-0.98,-0.55,-184.95,-60.90,-48.30,32.63,134.41,
06/01/2021,01:08:11.17,115.23,-974.61,274.90,-1.77,-1.52,-1.28,-184.35,-60.30,-48.15,32.63,134.41,
06/01/2021,01:08:11.17,113.77,-970.21,271.00,2.44,-1.16,-0.98,-184.35,-60.30,-48.15,32.82,134.41,
06/01/2021,01:08:11.18,117.68,-966.80,269.04,-0.30,-0.73,0.00,-184.35,-60.30,-48.15,32.73,134.41,
06/01/2021,01:08:11.19,118.65,-960.45,272.46,0.49,0.98,0.18,-184.20,-61.65,-48.00,32.53,134.41,
06/01/2021,01:08:11.20,121.58,-962.89,281.74,0.06,-0.37,1.52,-184.20,-61.65,-48.00,32.77,134.41,
06/01/2021,01:08:11.20,112.79,-958.01,274.90,1.40,0.85,-2.13,-184.20,-61.65,-48.00,32.77,134.41,
06/01/2021,01:08:11.21,110.84,-971.68,271.48,2.38,-0.43,2.44,-184.20,-61.65,-48.00,32.92,134.41,
06/01/2021,01:08:11.21,114.75,-972.66,252.93,-0.55,-1.71,-2.68,-185.70,-60.45,-47.70,32.73,134.41,
06/01/2021,01:08:11.23,108.40,-960.94,262.70,-0.61,-1.04,-5.30,-183.60,-61.05,-47.85,32.63,134.41,
06/01/2021,01:08:11.23,123.54,-967.77,275.39,1.46,-0.37,0.43,-184.65,-60.60,-47.85,32.77,134.41,
06/01/2021,01:08:11.23,117.68,-956.54,259.77,1.71,0.85,-0.55,-184.65,-60.60,-47.85,32.97,134.41,
06/01/2021,01:08:11.24,116.21,-967.77,263.18,1.28,-0.30,-0.55,-183.75,-60.90,-49.05,32.92,134.41,
06/01/2021,01:08:11.24,123.05,-972.66,274.90,0.06,1.52,-0.24,-183.75,-60.90,-49.05,32.44,134.41,
06/01/2021,01:08:11.26,121.09,-957.03,273.44,0.43,-0.98,1.28,-183.60,-61.35,-47.10,32.73,134.41,
06/01/2021,01:08:11.26,110.35,-969.73,274.90,0.30,1.46,0.91,-185.10,-58.65,-48.15,32.92,134.41,
06/01/2021,01:08:11.27,124.51,-967.29,271.97,1.34,-2.74,1.52,-185.10,-58.65,-48.15,32.97,134.41,
06/01/2021,01:08:11.27,114.26,-971.68,279.30,-1.40,-0.85,0.18,-185.10,-58.65,-48.15,32.92,134.41,
06/01/2021,01:08:11.28,118.16,-963.38,259.77,0.73,-2.62,-2.13,-185.10,-58.65,-48.15,32.82,134.41,
06/01/2021,01:08:11.29,113.77,-961.43,266.60,0.85,-2.68,-0.79,-183.90,-59.85,-46.80,32.77,134.41,
06/01/2021,01:08:11.30,120.12,-966.31,272.95,0.98,-0.24,-0.30,-183.90,-59.85,-46.80,32.63,134.41,
06/01/2021,01:08:11.30,114.26,-973.63,265.62,-0.18,0.30,-0.55,-183.90,-61.05,-48.60,32.77,134.41,
06/01/2021,01:08:11.30,109.86,-967.77,266.11,0.55,-2.56,2.32,-183.90,-61.05,-48.60,32.63,134.41,
06/01/2021,01:08:11.31,113.77,-962.89,268.07,0.49,-0.85,-1.40,-184.50,-60.90,-47.25,32.73,134.41,
06/01/2021,01:08:11.33,123.54,-969.24,260.25,1.22,0.67,2.01,-184.50,-60.90,-47.25,32.63,134.41,
06/01/2021,01:08:11.33,121.58,-958.98,271.00,2.32,-2.56,-0.37,-184.65,-63.00,-47.40,32.73,134.41,
06/01/2021,01:08:11.34,125.49,-965.33,273.93,0.91,0.67,-0.98,-184.65,-63.00,-47.40,32.82,134.41,
06/01/2021,01:08:11.34,125.00,-949.71,263.67,1.46,-0.73,0.00,-183.90,-60.30,-47.85,32.77,134.41,
06/01/2021,01:08:11.35,116.21,-969.73,271.00,-1.22,-0.91,0.61,-183.90,-60.30,-47.85,32.63,134.41,
06/01/2021,01:08:11.35,118.65,-960.45,266.11,0.49,-1.77,0.06,-183.75,-60.00,-47.70,32.92,134.41,
06/01/2021,01:08:11.37,111.33,-966.31,266.60,0.67,-2.20,0.49,-185.40,-62.25,-47.85,32.77,134.41,
06/01/2021,01:08:11.37,115.23,-974.61,271.48,-0.55,0.67,-0.37,-185.40,-62.25,-47.85,32.82,134.41,
06/01/2021,01:08:11.37,115.23,-966.80,267.58,0.49,-1.65,0.61,-185.40,-62.25,-47.85,32.53,134.41,
06/01/2021,01:08:11.38,128.91,-975.10,272.46,0.61,-3.84,-0.79,-183.45,-60.90,-48.30,32.73,134.41,
06/01/2021,01:08:11.38,121.58,-958.50,261.23,0.30,0.30,1.46,-183.45,-60.90,-48.30,32.82,134.41,
06/01/2021,01:08:11.40,113.77,-964.84,282.23,1.59,-0.30,-0.37,-184.95,-61.20,-49.05,32.44,134.41,
06/01/2021,01:08:11.40,118.65,-969.24,259.28,1.77,0.24,0.98,-183.75,-61.65,-48.30,32.73,134.41,
06/01/2021,01:08:11.41,113.77,-972.66,275.88,-0.06,0.91,1.28,-183.75,-61.65,-48.30,32.92,134.41,
06/01/2021,01:08:11.41,122.56,-958.98,265.62,2.13,-2.80,-1.46,-183.00,-59.25,-48.30,33.06,134.41,
06/01/2021,01:08:11.42,117.19,-963.38,261.72,1.04,-4.76,0.67,-183.00,-59.25,-48.30,32.92,134.41,
06/01/2021,01:08:11.43,111.82,-974.61,261.23,-0.18,-1.34,-3.29,-184.95,-60.45,-47.25,32.58,134.41,
06/01/2021,01:08:11.44,118.16,-976.56,270.51,0.12,0.00,-0.43,-184.95,-60.45,-47.25,32.92,134.41,
06/01/2021,01:08:11.44,123.05,-964.36,264.65,-0.79,-1.59,-3.29,-184.95,-60.45,-47.25,32.73,134.41,
06/01/2021,01:08:11.44,124.02,-965.33,270.02,-0.73,-3.54,2.13,-184.95,-60.45,-47.25,32.77,134.41,
06/01/2021,01:08:11.45,118.65,-974.12,279.30,1.52,-2.56,-0.24,-184.35,-59.55,-48.60,32.73,134.41,
06/01/2021,01:08:11.46,114.75,-972.17,264.16,0.55,-1.52,-0.98,-184.95,-59.70,-45.45,32.58,134.41,
06/01/2021,01:08:11.47,117.68,-958.01,273.44,0.67,0.67,-0.61,-184.95,-59.70,-45.45,32.58,134.41,
06/01/2021,01:08:11.47,138.67,-970.21,264.16,0.00,0.67,-0.73,-184.50,-61.20,-48.30,33.06,134.41,
06/01/2021,01:08:11.48,126.95,-965.82,262.70,-0.49,-0.43,-0.12,-184.50,-61.20,-48.30,32.58,134.41,
06/01/2021,01:08:11.48,111.82,-969.24,259.28,0.67,-0.37,-1.77,-184.35,-60.30,-49.35,32.82,134.41,
06/01/2021,01:08:11.50,129.88,-967.77,270.02,-0.98,-1.16,0.24,-184.35,-60.30,-49.35,32.92,134.41,
06/01/2021,01:08:11.50,122.07,-961.91,271.48,0.49,-2.01,-1.46,-185.10,-59.55,-46.80,32.82,134.41,
06/01/2021,01:08:11.56,128.42,-962.89,270.51,1.04,0.12,-1.34,-185.40,-60.30,-48.15,32.97,134.41,
06/01/2021,01:08:11.57,111.82,-965.82,266.11,0.67,0.12,-2.26,-185.85,-61.35,-47.85,32.77,134.41,
06/01/2021,01:08:11.57,125.98,-961.91,267.09,0.37,-2.56,-0.30,-185.25,-60.45,-48.00,32.77,134.41,
06/01/2021,01:08:11.58,116.70,-967.77,277.34,2.01,0.37,1.16,-185.25,-60.45,-48.00,32.97,134.41,
06/01/2021,01:08:11.59,119.14,-960.45,284.18,0.12,1.71,-1.10,-185.10,-61.05,-48.60,32.77,134.41,
06/01/2021,01:08:11.60,118.16,-966.80,269.04,1.34,0.30,2.26,-185.10,-61.05,-48.60,32.73,134.41,
06/01/2021,01:08:11.60,117.19,-972.17,273.93,-0.91,1.10,2.26,-183.90,-60.60,-48.15,32.58,134.41,
06/01/2021,01:08:11.61,124.02,-969.73,272.95,1.77,-0.91,-0.43,-183.90,-60.60,-48.15,32.73,134.41,
06/01/2021,01:08:11.61,121.58,-965.82,274.90,0.24,1.95,1.89,-183.90,-60.60,-48.15,32.82,134.41,
06/01/2021,01:08:11.63,125.98,-961.91,275.39,1.65,-0.79,2.68,-186.60,-59.55,-48.15,32.82,134.41,
06/01/2021,01:08:11.63,114.26,-971.68,273.44,2.44,-1.65,0.37,-186.60,-59.55,-48.15,32.77,134.41,
06/01/2021,01:08:11.63,110.35,-958.98,274.90,1.40,-0.55,-0.55,-185.85,-60.60,-48.60,32.58,134.41,
06/01/2021,01:08:11.64,126.46,-967.77,261.23,1.04,0.61,0.18,-185.85,-60.60,-48.60,33.11,134.41,
06/01/2021,01:08:11.64,112.79,-957.52,257.81,-0.61,-0.24,-0.30,-184.35,-59.85,-48.60,33.06,134.41,
06/01/2021,01:08:11.66,123.05,-965.33,280.76,0.85,0.73,-0.06,-184.35,-59.85,-48.90,32.92,134.41,
06/01/2021,01:08:11.66,125.98,-965.82,279.30,-0.24,-1.04,-2.38,-184.35,-59.85,-48.90,32.92,134.41,
06/01/2021,01:08:11.67,116.70,-972.66,262.21,0.91,0.67,-0.55,-184.35,-59.85,-48.90,32.92,134.41,
06/01/2021,01:08:11.67,108.40,-964.36,272.95,0.67,-0.49,-0.67,-184.35,-59.85,-48.15,32.77,134.41,
06/01/2021,01:08:11.68,124.02,-966.31,284.18,0.91,-0.30,0.55,-184.35,-59.85,-48.15,32.77,134.41,
06/01/2021,01:08:11.69,110.35,-958.50,268.07,0.18,0.49,0.12,-183.90,-61.05,-48.90,32.92,134.41,
06/01/2021,01:08:11.70,129.39,-969.24,269.53,2.68,3.17,0.00,-183.90,-61.05,-48.90,32.92,134.41,
06/01/2021,01:08:11.70,136.23,-975.10,266.11,-0.12,0.79,-0.98,-185.70,-60.45,-48.90,32.77,134.41,
06/01/2021,01:08:11.70,122.56,-964.84,264.16,0.55,-1.59,-2.07,-185.70,-60.45,-48.30,32.97,134.41,
06/01/2021,01:08:11.71,130.37,-964.84,269.53,1.16,1.28,-0.55,-185.70,-60.45,-48.30,32.92,134.41,
06/01/2021,01:08:11.71,118.65,-957.03,270.51,1.59,-0.30,0.30,-185.70,-60.45,-48.30,32.63,134.41,
06/01/2021,01:08:11.73,124.51,-967.29,275.88,1.40,0.79,-1.59,-183.60,-59.85,-48.90,32.92,134.41,
06/01/2021,01:08:11.73,122.07,-961.91,278.81,0.43,0.55,-1.22,-185.25,-60.00,-46.95,32.77,134.41,
06/01/2021,01:08:11.74,122.07,-964.36,271.00,1.83,-0.55,1.89,-185.25,-60.00,-46.95,32.63,134.41,
06/01/2021,01:08:11.74,117.19,-976.56,274.41,1.34,3.11,-0.06,-183.75,-61.20,-48.00,32.92,134.41,
06/01/2021,01:08:11.75,121.09,-965.82,273.44,1.40,1.28,0.12,-183.75,-61.20,-48.00,32.77,134.41,
06/01/2021,01:08:11.76,129.88,-958.50,270.02,0.37,1.16,1.77,-184.95,-61.65,-49.05,32.73,134.41,
06/01/2021,01:08:11.77,121.58,-964.36,260.25,2.32,-0.91,-1.40,-184.95,-61.65,-49.05,32.92,134.41,
06/01/2021,01:08:11.77,120.12,-955.57,275.88,-1.52,-2.07,1.28,-185.10,-59.85,-48.60,32.73,134.41,
06/01/2021,01:08:11.77,122.56,-967.77,276.37,-0.85,-1.89,-0.73,-185.10,-59.85,-48.60,32.77,134.41,
06/01/2021,01:08:11.78,122.07,-962.89,264.65,2.20,0.85,0.18,-185.10,-59.85,-48.60,32.73,134.41,
06/01/2021,01:08:11.79,124.51,-958.50,268.55,0.73,-1.34,2.13,-185.85,-61.05,-47.85,32.92,134.41,
06/01/2021,01:08:11.80,114.75,-952.15,266.60,0.73,-1.04,-0.12,-185.85,-61.05,-47.85,32.58,134.41,
06/01/2021,01:08:11.80,125.49,-952.15,273.93,0.37,-0.91,1.16,-183.60,-59.85,-47.85,32.73,134.41,
06/01/2021,01:08:11.81,122.56,-958.50,273.44,1.95,-3.17,-0.18,-183.60,-59.85,-47.85,32.92,134.41,
06/01/2021,01:08:11.81,127.93,-958.50,275.39,0.67,-0.24,-0.79,-184.20,-59.70,-48.00,32.82,134.41,
06/01/2021,01:08:11.83,129.88,-956.54,277.83,-0.67,2.50,-1.65,-185.40,-60.60,-48.15,32.73,134.41,
06/01/2021,01:08:11.83,120.12,-972.66,272.95,0.43,-0.18,2.56,-185.40,-60.60,-48.15,32.82,134.41,
06/01/2021,01:08:11.84,118.16,-963.38,259.28,-0.24,-0.30,-1.16,-185.40,-60.60,-48.15,32.73,134.41,
06/01/2021,01:08:11.84,129.88,-967.29,268.07,-1.22,2.68,-0.24,-184.50,-58.95,-48.75,32.92,134.41,
06/01/2021,01:08:11.85,123.54,-957.52,278.81,3.23,-0.73,2.13,-184.50,-58.95,-48.75,32.77,134.41,
06/01/2021,01:08:11.86,143.55,-968.75,271.97,0.85,-0.43,0.85,-185.10,-58.65,-47.40,32.58,134.41,
06/01/2021,01:08:11.86,123.54,-967.77,268.55,-0.61,-0.18,-3.11,-183.45,-60.90,-47.25,32.73,134.41,
06/01/2021,01:08:11.87,118.16,-969.24,283.20,0.00,2.07,-2.26,-183.45,-60.90,-47.25,32.77,134.41,
06/01/2021,01:08:11.87,123.05,-960.94,265.62,-0.12,-0.24,0.67,-185.25,-60.45,-48.75,32.82,134.41,
06/01/2021,01:08:11.88,138.18,-962.40,261.23,-0.49,-0.85,-0.18,-185.25,-60.45,-48.75,32.97,134.41,
06/01/2021,01:08:11.88,130.37,-973.63,267.58,-2.87,-0.98,-0.98,-185.25,-60.45,-48.75,33.06,134.41,
06/01/2021,01:08:11.90,124.51,-982.91,261.72,1.34,-0.06,1.04,-184.95,-61.20,-45.75,32.58,134.41,
06/01/2021,01:08:11.90,124.51,-961.91,281.25,0.85,0.30,0.37,-184.50,-60.90,-46.95,32.82,134.41,
06/01/2021,01:08:11.91,120.12,-964.84,288.57,0.06,-1.16,-0.85,-184.50,-60.90,-46.95,32.73,134.41,
06/01/2021,01:08:11.91,121.09,-958.50,269.04,1.77,-0.91,0.67,-182.85,-60.30,-47.40,32.77,134.41,
06/01/2021,01:08:11.92,119.14,-975.59,268.07,1.71,-0.73,0.55,-182.85,-60.30,-47.40,32.82,134.41,
06/01/2021,01:08:11.94,141.60,-967.77,278.81,0.30,-0.67,2.13,-183.30,-61.05,-47.40,32.73,134.41,
06/01/2021,01:08:11.94,130.37,-967.29,264.65,0.73,-0.18,-0.24,-183.30,-61.05,-47.40,33.06,134.41,
06/01/2021,01:08:11.94,121.58,-970.21,269.53,-0.61,-0.06,0.00,-184.65,-61.05,-48.90,32.82,134.41,
06/01/2021,01:08:11.95,131.84,-965.33,275.39,0.06,0.67,-0.12,-184.65,-61.05,-48.90,32.73,134.41,
06/01/2021,01:08:11.95,129.39,-967.77,276.37,1.71,0.73,2.56,-184.20,-59.70,-46.95,32.82,134.41,
06/01/2021,01:08:11.97,121.58,-952.64,274.90,-0.06,0.12,-0.73,-183.60,-61.05,-48.15,32.58,134.41,
06/01/2021,01:08:11.97,126.95,-967.29,274.90,1.89,1.65,-1.59,-184.65,-61.35,-47.40,32.58,134.41,
06/01/2021,01:08:11.98,119.14,-980.96,262.70,0.18,-2.07,-1.34,-184.65,-61.35,-47.40,32.63,134.41,
06/01/2021,01:08:11.98,132.81,-963.87,274.90,-0.18,0.61,0.98,-183.30,-60.30,-48.90,32.92,134.41,
06/01/2021,01:08:11.99,112.30,-959.96,263.18,1.16,-0.67,0.61,-183.30,-60.30,-48.90,32.92,134.41,
06/01/2021,01:08:12.00,116.21,-970.70,286.62,-0.61,-1.04,-0.98,-183.60,-60.30,-47.85,32.63,134.41,
06/01/2021,01:08:12.00,131.35,-968.26,270.51,0.61,-1.34,-0.24,-183.60,-60.30,-47.85,32.77,134.41,
06/01/2021,01:08:12.01,134.28,-958.98,273.93,1.83,1.83,-1.16,-183.60,-60.30,-47.85,32.77,134.41,
06/01/2021,01:08:12.06,122.56,-970.21,276.86,1.04,-1.34,-1.22,-183.60,-61.05,-47.10,32.82,134.41,
06/01/2021,01:08:12.08,121.09,-968.26,282.23,1.95,-2.20,-1.16,-185.10,-61.05,-47.85,32.73,134.41,
06/01/2021,01:08:12.09,118.16,-967.29,271.48,0.67,-2.62,0.67,-183.60,-60.60,-47.10,32.92,134.41,
06/01/2021,01:08:12.09,124.02,-954.59,289.06,-0.79,-0.55,0.24,-184.50,-59.25,-48.75,32.97,134.41,
06/01/2021,01:08:12.10,125.49,-958.50,271.48,-0.37,-3.17,-0.30,-184.50,-59.25,-48.75,32.77,134.41,
06/01/2021,01:08:12.10,128.42,-960.94,267.58,-0.37,1.89,1.83,-184.50,-59.25,-48.75,32.77,134.41,
06/01/2021,01:08:12.11,123.05,-963.87,280.76,0.49,0.06,-1.89,-184.50,-59.25,-48.75,32.92,134.41,
06/01/2021,01:08:12.11,122.56,-967.29,285.64,0.91,-1.16,-0.61,-185.40,-59.55,-48.60,32.39,134.41,
06/01/2021,01:08:12.13,131.35,-964.84,257.81,0.00,-0.18,-0.37,-184.35,-61.05,-48.60,33.06,134.41,
06/01/2021,01:08:12.13,125.00,-971.68,270.02,0.49,-0.98,0.79,-184.65,-59.85,-48.60,32.73,134.41,
06/01/2021,01:08:12.14,124.51,-967.77,275.39,-1.77,-0.30,-1.16,-184.65,-59.85,-48.60,32.73,134.41,
06/01/2021,01:08:12.14,129.39,-966.80,267.58,0.43,0.06,-0.55,-184.65,-59.85,-47.10,32.77,134.41,
06/01/2021,01:08:12.15,127.93,-960.45,286.13,-1.10,-0.98,-0.06,-184.65,-59.85,-47.10,32.73,134.41,
06/01/2021,01:08:12.16,133.79,-949.22,273.93,-0.79,0.55,0.55,-184.65,-59.85,-47.10,32.82,134.41,
06/01/2021,01:08:12.17,125.98,-953.61,263.67,-1.04,1.28,2.68,-184.65,-60.30,-47.10,32.82,134.41,
06/01/2021,01:08:12.17,135.74,-970.70,276.86,2.50,-0.37,-1.22,-184.65,-60.30,-47.10,32.53,134.41,
06/01/2021,01:08:12.17,124.02,-968.26,273.44,-1.10,-2.56,-0.12,-184.65,-60.30,-47.10,32.73,134.41,
06/01/2021,01:08:12.18,138.67,-964.36,274.41,-0.73,2.50,1.22,-184.65,-60.30,-47.10,32.77,134.41,
06/01/2021,01:08:12.19,137.70,-962.89,273.44,0.67,0.24,-0.61,-184.65,-59.85,-47.85,32.92,134.41,
06/01/2021,01:08:12.20,126.46,-970.21,270.02,-1.71,0.61,-0.30,-184.65,-59.85,-47.85,32.77,134.41,
06/01/2021,01:08:12.20,122.07,-961.91,270.02,1.89,-3.23,0.43,-184.20,-60.00,-48.30,32.82,134.41,
06/01/2021,01:08:12.21,122.56,-966.80,290.53,1.28,0.18,-0.12,-184.20,-60.00,-48.30,32.92,134.41,
06/01/2021,01:08:12.21,117.68,-964.36,271.97,-0.18,0.73,0.18,-183.30,-60.30,-48.90,32.97,134.41,
06/01/2021,01:08:12.23,119.63,-968.26,273.93,1.16,-0.18,3.29,-183.30,-60.30,-48.90,32.92,134.41,
06/01/2021,01:08:12.23,129.39,-975.10,280.76,-0.49,-0.18,0.00,-183.30,-60.30,-48.90,32.82,134.41,
06/01/2021,01:08:12.24,125.00,-970.21,269.53,-1.10,-1.28,-0.73,-185.10,-60.60,-47.10,32.92,134.41,
06/01/2021,01:08:12.24,128.91,-972.66,280.76,1.10,-3.17,2.38,-185.10,-60.60,-47.10,32.77,134.41,
06/01/2021,01:08:12.24,136.72,-954.10,276.37,-1.83,-0.06,0.91,-183.60,-61.05,-47.85,32.92,134.41,
06/01/2021,01:08:12.26,124.51,-959.96,282.71,2.56,1.46,0.79,-185.25,-60.00,-46.20,32.92,134.41,
06/01/2021,01:08:12.26,125.00,-967.29,274.90,1.40,-2.56,0.98,-185.25,-61.20,-46.20,32.92,134.41,
06/01/2021,01:08:12.27,125.98,-965.82,281.74,0.49,-0.73,-1.83,-185.25,-61.20,-46.20,32.97,134.41,
06/01/2021,01:08:12.27,118.65,-972.17,273.44,-0.37,0.06,-0.06,-185.25,-61.20,-46.20,32.82,134.41,
06/01/2021,01:08:12.28,131.35,-967.77,276.86,0.37,-1.16,0.61,-185.25,-61.20,-46.20,32.73,134.41,
06/01/2021,01:08:12.29,135.74,-965.33,271.97,1.22,1.46,0.24,-183.60,-61.05,-47.40,32.77,134.41,
06/01/2021,01:08:12.30,131.84,-956.54,277.83,0.43,-1.22,1.16,-183.60,-61.05,-47.40,32.73,134.41,
06/01/2021,01:08:12.30,129.39,-956.54,275.39,1.46,-1.28,0.55,-185.85,-59.55,-48.60,32.92,134.41,
06/01/2021,01:08:12.31,120.12,-966.80,271.97,-0.37,-0.85,-1.52,-185.85,-59.55,-48.60,32.97,134.41,
06/01/2021,01:08:12.31,126.46,-961.91,288.57,0.91,1.89,1.10,-185.85,-59.55,-48.60,32.97,134.41,
06/01/2021,01:08:12.32,129.88,-956.54,273.44,0.79,-1.28,-0.24,-184.50,-59.70,-48.30,32.73,134.41,
06/01/2021,01:08:12.33,129.88,-959.47,271.97,-0.55,-1.40,1.40,-184.50,-59.70,-48.30,32.77,134.41,
06/01/2021,01:08:12.33,129.39,-961.91,259.77,-0.61,-1.16,0.85,-185.10,-62.25,-47.40,33.11,134.41,
06/01/2021,01:08:12.34,131.84,-965.33,287.60,0.55,1.83,-1.77,-185.10,-62.25,-47.40,32.92,134.41,
06/01/2021,01:08:12.34,129.39,-953.12,265.62,2.32,-1.52,0.67,-185.10,-62.25,-47.40,32.73,134.41,
06/01/2021,01:08:12.35,125.98,-969.73,265.14,-0.67,2.87,1.40,-185.10,-62.25,-47.40,32.73,134.41,
06/01/2021,01:08:12.36,126.46,-969.24,274.90,-2.87,-0.61,-1.04,-184.20,-59.70,-46.50,32.73,134.41,
06/01/2021,01:08:12.37,130.37,-966.31,270.02,0.30,-2.93,-0.79,-184.20,-59.70,-46.50,32.58,134.41,
06/01/2021,01:08:12.37,135.74,-960.94,274.90,0.49,-1.22,-1.16,-186.60,-60.30,-48.60,32.77,134.41,
06/01/2021,01:08:12.38,129.39,-970.70,272.46,1.28,0.67,0.91,-186.60,-60.30,-48.60,32.73,134.41,
06/01/2021,01:08:12.38,126.95,-964.84,268.55,0.18,-1.10,-0.30,-183.00,-60.30,-48.60,32.73,134.41,
06/01/2021,01:08:12.40,128.91,-955.08,270.51,0.37,0.61,-0.43,-183.00,-59.25,-47.70,32.77,134.41,
06/01/2021,01:08:12.40,135.25,-963.87,278.32,1.34,-0.18,-1.16,-183.00,-59.25,-47.70,32.73,134.41,
06/01/2021,01:08:12.41,124.02,-963.87,265.14,2.44,-0.79,0.30,-184.35,-61.05,-47.40,32.92,134.41,
06/01/2021,01:08:12.41,130.86,-969.24,273.44,-0.12,0.91,-2.32,-184.35,-61.05,-47.40,32.82,134.41,
06/01/2021,01:08:12.41,129.39,-973.63,269.04,0.55,-1.04,1.52,-182.55,-59.55,-49.65,32.58,134.41,
06/01/2021,01:08:12.43,123.05,-964.84,290.53,-1.52,0.18,-1.46,-184.50,-60.90,-46.95,32.73,134.41,
06/01/2021,01:08:12.43,120.12,-967.29,274.41,1.95,-0.30,0.18,-183.60,-59.85,-47.40,32.58,134.41,
06/01/2021,01:08:12.44,117.68,-966.31,268.55,0.55,-0.85,0.43,-183.60,-59.85,-47.40,32.77,134.41,
06/01/2021,01:08:12.44,117.68,-966.80,274.41,-0.49,0.12,0.00,-183.60,-59.85,-47.40,32.92,134.42,
06/01/2021,01:08:12.45,126.95,-965.82,272.95,0.18,-1.95,0.18,-183.60,-59.85,-47.40,32.73,134.42,
06/01/2021,01:08:12.45,132.81,-958.98,282.71,0.24,-0.91,-0.61,-184.35,-59.85,-48.15,32.92,134.42,
06/01/2021,01:08:12.47,131.35,-975.10,282.71,0.55,-0.24,-1.28,-186.00,-61.20,-48.00,32.73,134.41,
06/01/2021,01:08:12.47,119.63,-963.87,271.48,-1.52,-2.99,-1.46,-186.00,-61.20,-48.00,32.73,134.42,
06/01/2021,01:08:12.48,131.84,-958.50,263.67,-0.85,-0.61,0.73,-185.70,-61.20,-46.20,32.77,134.42,
06/01/2021,01:08:12.48,129.39,-966.31,280.76,2.80,-1.83,2.50,-185.70,-61.20,-46.20,32.77,134.42,
06/01/2021,01:08:12.49,131.84,-973.63,271.97,0.18,1.10,0.79,-184.35,-60.30,-48.60,32.97,134.42,
06/01/2021,01:08:12.50,112.30,-962.40,268.07,0.73,0.85,-0.49,-184.35,-60.30,-48.60,32.73,134.42,
06/01/2021,01:08:12.50,116.70,-967.77,278.81,1.22,-1.71,-0.91,-186.45,-62.40,-48.75,32.63,134.42,
06/01/2021,01:08:12.51,123.54,-968.26,272.46,1.46,-1.65,-0.49,-186.45,-62.40,-48.75,32.92,134.42,
06/01/2021,01:08:12.51,133.79,-953.61,274.90,0.12,-1.83,0.85,-183.60,-59.10,-47.10,32.97,134.42,
06/01/2021,01:08:12.52,139.65,-962.40,286.62,-0.91,0.30,-1.22,-183.60,-59.10,-47.10,32.73,134.42,
06/01/2021,01:08:12.59,131.35,-966.80,284.18,-0.43,-1.95,2.07,-184.65,-59.55,-47.40,32.73,134.41,
06/01/2021,01:08:12.60,132.81,-964.36,273.44,0.30,0.91,0.30,-184.65,-60.30,-46.35,32.73,134.41,
06/01/2021,01:08:12.60,131.84,-950.20,285.16,1.04,1.04,0.55,-184.50,-59.70,-46.95,32.53,134.41,
06/01/2021,01:08:12.61,126.95,-959.96,273.44,-1.89,-1.34,1.46,-184.50,-59.70,-46.95,32.73,134.41,
06/01/2021,01:08:12.61,124.51,-961.91,283.20,-3.66,-0.49,-0.24,-184.50,-59.70,-46.95,32.92,134.41,
06/01/2021,01:08:12.63,127.93,-954.10,279.79,-0.24,1.16,-0.24,-184.20,-61.65,-46.95,32.92,134.41,
06/01/2021,01:08:12.63,127.93,-965.82,280.27,-0.30,-2.32,-0.12,-184.20,-61.65,-46.95,32.77,134.41,
06/01/2021,01:08:12.64,129.39,-965.82,275.88,-0.49,-2.56,-0.85,-183.60,-59.55,-47.85,32.92,134.41,
06/01/2021,01:08:12.64,127.44,-963.87,284.18,0.98,0.85,0.24,-183.60,-59.55,-47.85,32.73,134.41,
06/01/2021,01:08:12.65,125.98,-974.12,284.18,-0.55,0.12,1.22,-184.20,-59.70,-49.50,32.63,134.41,
06/01/2021,01:08:12.66,127.44,-950.68,278.32,-1.40,0.24,0.30,-184.35,-60.60,-46.35,32.63,134.41,
06/01/2021,01:08:12.66,120.61,-954.59,284.67,-0.91,-2.01,0.98,-184.35,-60.60,-46.35,33.06,134.41,
06/01/2021,01:08:12.67,134.28,-962.40,284.18,0.85,-1.59,0.73,-184.35,-60.60,-46.35,32.73,134.41,
06/01/2021,01:08:12.67,126.46,-966.80,283.20,-0.55,-3.23,3.41,-184.65,-60.30,-48.90,32.73,134.41,
06/01/2021,01:08:12.68,127.93,-962.89,266.11,-1.46,-2.56,2.93,-184.65,-60.30,-48.90,32.73,134.41,
06/01/2021,01:08:12.69,118.65,-963.38,279.30,0.37,-0.30,-3.11,-185.40,-60.60,-48.60,32.82,134.41,
06/01/2021,01:08:12.70,126.95,-964.84,285.16,-1.28,-1.34,-2.56,-185.40,-60.60,-48.15,32.82,134.41,
06/01/2021,01:08:12.70,125.98,-967.29,277.83,0.79,-1.95,0.43,-185.40,-60.60,-48.15,32.77,134.41,
06/01/2021,01:08:12.71,130.86,-973.63,266.60,-1.89,-2.50,1.28,-184.35,-61.05,-47.85,32.73,134.41,
06/01/2021,01:08:12.71,128.42,-955.08,279.79,-1.22,1.04,-2.68,-184.35,-61.05,-47.85,32.58,134.41,
06/01/2021,01:08:12.72,128.42,-962.89,281.25,0.06,0.06,0.24,-184.35,-61.05,-47.85,32.77,134.41,
06/01/2021,01:08:12.73,130.86,-954.59,284.67,0.37,0.67,2.38,-185.25,-60.00,-48.00,32.92,134.41,
06/01/2021,01:08:12.74,125.00,-955.57,283.20,1.22,1.40,0.43,-185.25,-60.00,-48.00,33.06,134.41,
06/01/2021,01:08:12.74,130.86,-971.19,271.00,1.89,-0.85,0.85,-185.25,-60.00,-48.00,32.73,134.41,
06/01/2021,01:08:12.74,129.88,-966.31,282.23,1.22,-1.28,2.13,-185.10,-61.80,-47.40,32.82,134.41,
06/01/2021,01:08:12.75,132.81,-964.36,269.04,1.71,-2.44,-4.21,-185.10,-61.80,-47.40,32.77,134.41,
06/01/2021,01:08:12.76,137.21,-973.14,273.44,0.37,-0.98,3.11,-185.40,-61.05,-48.60,32.58,134.41,
06/01/2021,01:08:12.77,121.58,-965.82,274.90,-0.30,0.37,0.67,-185.40,-61.05,-48.60,32.44,134.41,
06/01/2021,01:08:12.77,118.16,-960.45,284.67,-1.10,-0.49,-0.30,-185.40,-61.05,-48.60,32.82,134.41,
06/01/2021,01:08:12.78,122.07,-973.63,283.69,-0.18,0.61,1.52,-185.70,-60.90,-48.00,32.73,134.41,
06/01/2021,01:08:12.78,128.91,-963.87,272.46,-0.73,-0.61,1.10,-185.70,-60.90,-48.00,32.73,134.41,
06/01/2021,01:08:12.80,123.54,-975.59,281.74,0.61,-0.55,1.28,-185.25,-59.70,-46.20,32.63,134.41,
06/01/2021,01:08:12.80,133.30,-966.31,283.69,0.24,0.24,0.79,-185.25,-59.70,-46.20,32.77,134.41,
06/01/2021,01:08:12.81,132.32,-954.10,285.16,-0.61,-0.06,-2.01,-185.10,-59.55,-46.80,32.92,134.41,
06/01/2021,01:08:12.81,121.09,-962.40,276.86,0.24,-1.77,0.49,-185.10,-59.55,-46.80,32.73,134.41,
06/01/2021,01:08:12.81,125.98,-958.98,276.37,-0.12,2.99,1.65,-184.20,-59.70,-48.00,32.92,134.41,
06/01/2021,01:08:12.83,124.51,-958.98,267.58,-1.59,-1.71,-0.12,-184.35,-60.60,-45.60,32.73,134.41,
06/01/2021,01:08:12.83,139.65,-963.87,282.71,-1.40,-0.85,-0.30,-184.35,-60.60,-45.60,32.73,134.41,
06/01/2021,01:08:12.84,121.09,-967.77,264.65,-0.61,-1.28,0.18,-184.35,-60.60,-45.60,32.82,134.41,
06/01/2021,01:08:12.84,129.39,-953.61,288.09,-1.16,-1.83,0.79,-184.35,-60.60,-45.60,32.63,134.41,
06/01/2021,01:08:12.85,133.30,-971.68,265.14,-0.06,-1.46,0.79,-185.40,-60.30,-47.40,33.11,134.41,
06/01/2021,01:08:12.86,116.70,-960.45,271.97,0.79,2.01,2.44,-184.50,-60.90,-49.05,32.73,134.41,
06/01/2021,01:08:12.87,127.44,-958.50,269.53,0.73,1.71,2.13,-184.50,-61.95,-47.70,32.77,134.41,
06/01/2021,01:08:12.87,129.39,-962.40,274.41,-1.34,-3.66,-0.49,-184.50,-61.95,-47.70,32.92,134.41,
06/01/2021,01:08:12.88,120.61,-964.36,272.46,2.62,-3.17,-1.04,-185.25,-59.25,-49.05,32.73,134.41,
06/01/2021,01:08:12.88,133.79,-965.82,288.57,0.79,0.18,1.10,-185.25,-59.25,-49.05,32.82,134.41,
06/01/2021,01:08:12.89,125.00,-965.82,280.76,-0.24,2.07,-1.71,-185.25,-59.25,-49.05,32.82,134.42,
06/01/2021,01:08:12.90,141.11,-963.87,283.20,-0.12,-0.49,3.05,-183.90,-60.60,-47.10,32.73,134.41,
06/01/2021,01:08:12.90,129.88,-966.31,286.13,0.85,-4.15,2.93,-185.25,-61.20,-47.25,32.92,134.41,
06/01/2021,01:08:12.91,121.09,-964.84,267.58,-1.16,-1.16,1.16,-185.25,-61.20,-47.25,32.58,134.41,
06/01/2021,01:08:12.91,138.67,-966.80,272.95,-0.43,-0.67,0.24,-183.60,-60.60,-47.25,32.73,134.42,
06/01/2021,01:08:12.92,119.14,-953.12,287.60,-1.28,-1.34,0.98,-183.60,-60.60,-48.90,32.73,134.42,
06/01/2021,01:08:12.93,131.84,-975.59,271.97,-2.20,0.55,3.66,-184.35,-59.55,-47.40,32.92,134.41,
06/01/2021,01:08:12.94,117.68,-971.19,277.83,0.61,0.06,0.43,-184.65,-61.05,-47.40,32.82,134.42,
06/01/2021,01:08:12.94,129.88,-958.98,271.97,-0.43,0.43,0.79,-184.65,-61.05,-47.40,32.58,134.42,
06/01/2021,01:08:12.95,127.93,-966.80,271.48,-0.43,-1.40,1.52,-184.95,-61.20,-47.25,32.73,134.42,
06/01/2021,01:08:12.95,136.23,-964.36,290.53,-0.18,-0.43,3.60,-184.95,-61.20,-47.25,32.82,134.42,
06/01/2021,01:08:12.97,130.86,-968.26,269.53,1.28,-2.56,1.16,-185.25,-60.45,-48.75,32.77,134.42,
06/01/2021,01:08:12.97,138.18,-965.82,271.00,0.73,0.37,0.91,-185.25,-60.45,-48.75,32.82,134.42,
06/01/2021,01:08:12.97,125.00,-965.82,268.07,2.13,-3.17,0.18,-185.40,-59.85,-48.60,32.73,134.42,
06/01/2021,01:08:12.98,123.05,-960.94,281.74,1.40,-1.52,2.32,-185.40,-59.85,-48.60,32.73,134.42,
06/01/2021,01:08:12.98,122.07,-955.08,276.86,-2.68,-2.26,-0.49,-183.90,-59.55,-48.15,32.92,134.42,
06/01/2021,01:08:13.00,128.42,-962.40,282.71,1.83,-0.79,-2.44,-185.70,-61.20,-47.70,32.92,134.42,
06/01/2021,01:08:13.00,127.93,-966.31,278.81,-0.43,1.22,0.00,-185.70,-61.20,-47.70,32.77,134.42,
06/01/2021,01:08:13.01,128.91,-974.61,271.97,0.00,0.12,0.49,-185.70,-61.20,-47.70,32.73,134.42,
06/01/2021,01:08:13.01,123.54,-960.94,279.30,0.37,-1.40,1.65,-185.70,-61.20,-47.70,32.82,134.42,
06/01/2021,01:08:13.02,136.72,-960.94,276.86,2.93,-3.48,-0.73,-185.10,-60.60,-48.60,32.82,134.42,
06/01/2021,01:08:13.03,121.09,-963.87,276.86,-2.07,-0.06,-0.30,-183.90,-60.30,-48.15,32.92,134.42,
06/01/2021,01:08:13.04,116.21,-960.45,275.39,-0.55,0.00,0.06,-186.00,-61.20,-48.30,32.82,134.42,
06/01/2021,01:08:13.04,121.58,-958.01,263.18,-0.55,-1.46,-1.59,-186.00,-61.20,-48.30,32.82,134.42,
06/01/2021,01:08:13.07,130.37,-971.68,268.55,3.05,-0.18,-0.30,-184.20,-61.20,-47.25,32.73,134.41,
06/01/2021,01:08:13.09,135.25,-959.96,275.39,1.89,-0.18,-0.55,-184.95,-60.00,-47.70,32.92,134.41,
06/01/2021,01:08:13.09,132.81,-955.08,257.32,-1.04,0.79,-0.55,-184.95,-60.00,-47.70,32.77,134.41,
06/01/2021,01:08:13.11,122.56,-975.59,275.88,1.40,-2.26,-2.07,-186.45,-60.45,-48.30,32.63,134.41,
06/01/2021,01:08:13.11,130.37,-967.77,280.76,-0.30,-1.04,-1.83,-186.45,-60.45,-48.30,32.63,134.41,
06/01/2021,01:08:13.12,127.44,-963.87,266.11,1.83,-1.40,-0.61,-183.45,-59.25,-49.50,32.73,134.41,
06/01/2021,01:08:13.12,128.91,-969.73,262.21,1.89,-1.28,-0.79,-183.45,-59.25,-49.50,32.92,134.41,
06/01/2021,01:08:13.12,125.00,-958.98,273.44,0.00,-1.04,-0.61,-183.45,-59.25,-49.50,32.63,134.41,
06/01/2021,01:08:13.14,126.46,-961.43,269.04,-1.28,-1.71,1.46,-185.25,-60.00,-47.25,32.82,134.41,
06/01/2021,01:08:13.14,134.28,-972.66,282.71,1.46,-1.83,2.56,-186.15,-59.10,-49.35,32.97,134.41,
06/01/2021,01:08:13.15,123.05,-967.29,284.18,-1.16,0.06,-0.85,-186.15,-59.10,-49.35,32.77,134.41,
06/01/2021,01:08:13.15,134.77,-959.96,269.04,1.16,-1.16,0.67,-186.15,-59.10,-49.35,32.82,134.41,
06/01/2021,01:08:13.16,121.58,-962.89,266.60,0.91,2.99,-0.61,-183.75,-60.90,-49.80,32.73,134.41,
06/01/2021,01:08:13.18,127.44,-958.98,284.18,0.85,-0.55,1.95,-185.25,-61.20,-46.95,33.06,134.41,
06/01/2021,01:08:13.18,132.32,-966.80,266.11,-0.61,0.61,1.89,-185.25,-61.20,-46.95,32.77,134.41,
06/01/2021,01:08:13.19,125.00,-961.91,283.20,-0.61,-0.49,-2.44,-185.40,-58.65,-47.40,33.06,134.41,
06/01/2021,01:08:13.19,133.30,-962.89,275.88,-0.61,-0.98,-1.40,-185.40,-58.65,-47.40,32.82,134.41,
06/01/2021,01:08:13.19,125.49,-971.68,283.69,0.06,0.55,0.37,-183.60,-60.60,-47.85,32.58,134.41,
06/01/2021,01:08:13.21,127.44,-957.52,284.18,-1.22,-2.93,-0.24,-183.30,-61.35,-48.60,32.58,134.41,
06/01/2021,01:08:13.21,123.54,-962.40,279.79,-0.24,-0.85,-1.46,-183.30,-61.35,-48.60,32.58,134.41,
06/01/2021,01:08:13.22,142.58,-956.54,277.83,1.04,-1.22,-1.28,-184.65,-61.35,-47.40,32.82,134.41,
06/01/2021,01:08:13.22,141.60,-963.38,278.81,-0.18,-1.52,0.18,-184.65,-61.35,-47.40,32.82,134.42,
06/01/2021,01:08:13.23,127.44,-946.29,268.55,2.07,-1.28,2.07,-184.65,-61.35,-47.40,32.77,134.42,
06/01/2021,01:08:13.24,139.16,-967.77,272.95,0.18,-1.65,2.32,-183.75,-60.00,-48.30,32.63,134.41,
06/01/2021,01:08:13.25,124.02,-958.50,275.88,-0.24,-0.18,-0.43,-186.60,-60.30,-48.15,32.73,134.41,
06/01/2021,01:08:13.25,133.79,-959.47,267.58,0.37,-2.50,0.91,-186.60,-60.30,-48.15,32.97,134.42,
06/01/2021,01:08:13.26,131.84,-971.68,277.34,0.43,0.49,0.61,-183.30,-59.85,-47.10,32.92,134.42,
06/01/2021,01:08:13.26,115.23,-970.70,275.88,-0.43,0.18,-1.65,-183.30,-59.85,-47.10,32.58,134.42,
06/01/2021,01:08:13.27,124.51,-965.33,270.02,1.46,-0.37,0.24,-183.60,-59.85,-48.90,32.77,134.42,
06/01/2021,01:08:13.28,123.54,-967.77,282.71,1.04,0.37,0.24,-183.60,-59.85,-48.90,32.82,134.42,
06/01/2021,01:08:13.28,120.61,-964.36,284.67,-0.49,1.04,0.73,-183.60,-59.85,-48.90,32.58,134.42,
06/01/2021,01:08:13.29,126.95,-959.96,269.04,-2.01,-0.37,1.34,-184.20,-60.00,-49.05,33.06,134.42,
06/01/2021,01:08:13.29,125.49,-967.77,273.93,0.67,-0.79,0.91,-184.20,-60.00,-49.05,32.73,134.42,
06/01/2021,01:08:13.30,130.37,-978.52,272.46,2.80,-2.56,0.91,-184.20,-60.00,-49.05,32.92,134.42,
06/01/2021,01:08:13.31,131.35,-953.61,278.32,0.18,-0.67,1.40,-183.75,-60.90,-47.25,33.06,134.42,
06/01/2021,01:08:13.32,130.86,-965.82,270.02,-0.55,-0.67,0.55,-185.85,-60.30,-47.10,32.92,134.42,
06/01/2021,01:08:13.32,128.91,-957.52,286.62,1.16,-0.61,-0.43,-185.85,-60.30,-47.10,33.06,134.42,
06/01/2021,01:08:13.33,121.58,-968.26,265.62,2.44,-1.04,-0.37,-183.90,-60.30,-48.15,32.73,134.42,
06/01/2021,01:08:13.33,121.58,-964.36,281.74,-0.61,0.73,2.07,-183.90,-60.30,-48.15,32.73,134.42,
06/01/2021,01:08:13.35,131.35,-958.01,270.02,-0.61,0.98,1.04,-183.60,-60.30,-48.15,32.63,134.42,
06/01/2021,01:08:13.35,124.02,-958.50,269.04,-0.79,0.12,1.83,-183.60,-60.30,-48.15,32.44,134.42,
06/01/2021,01:08:13.35,128.42,-968.75,271.97,-0.91,1.52,-1.89,-184.95,-60.30,-48.15,32.73,134.42,
06/01/2021,01:08:13.36,120.61,-957.03,275.39,-2.13,-0.49,2.20,-184.95,-60.00,-47.70,32.44,134.42,
06/01/2021,01:08:13.36,140.62,-956.54,278.81,1.77,-0.43,1.28,-184.95,-60.00,-47.70,32.63,134.42,
06/01/2021,01:08:13.38,133.30,-963.38,270.02,0.30,1.22,-0.18,-184.65,-60.30,-46.05,32.63,134.42,
06/01/2021,01:08:13.38,120.61,-957.52,271.97,-0.37,1.83,1.65,-184.65,-60.30,-46.05,32.73,134.42,
06/01/2021,01:08:13.39,122.56,-968.75,268.55,1.46,-1.77,-1.77,-183.30,-59.55,-48.15,32.82,134.42,
06/01/2021,01:08:13.39,134.77,-965.33,278.32,-0.55,0.18,0.12,-183.30,-59.55,-48.15,32.82,134.42,
06/01/2021,01:08:13.40,129.39,-963.38,272.95,-0.98,0.37,1.40,-183.30,-59.55,-48.15,32.73,134.42,
06/01/2021,01:08:13.41,130.86,-960.45,271.97,-0.49,0.73,-2.56,-184.95,-61.95,-47.70,32.73,134.42,
06/01/2021,01:08:13.42,124.02,-966.31,268.55,-1.46,-0.43,0.98,-183.60,-59.10,-47.40,32.58,134.42,
06/01/2021,01:08:13.42,126.46,-973.63,275.39,0.18,0.06,-0.73,-183.60,-59.10,-47.40,32.58,134.42,
06/01/2021,01:08:13.43,127.44,-970.21,267.09,-0.06,-0.67,-1.95,-183.75,-60.00,-48.30,32.82,134.42,
06/01/2021,01:08:13.43,136.72,-962.89,265.14,0.06,-0.49,0.55,-183.75,-60.00,-48.30,32.63,134.42,
06/01/2021,01:08:13.43,123.54,-972.17,279.79,0.79,-0.24,0.12,-183.75,-60.00,-48.30,32.77,134.42,
06/01/2021,01:08:13.45,122.56,-955.08,263.18,1.59,1.16,1.10,-183.30,-60.60,-47.10,32.82,134.42,
06/01/2021,01:08:13.45,128.42,-968.26,279.79,-2.38,-0.55,-0.43,-183.30,-60.60,-47.10,32.92,134.42,
06/01/2021,01:08:13.46,129.39,-968.75,276.86,-1.65,-1.10,-0.06,-183.75,-60.45,-46.50,32.77,134.42,
06/01/2021,01:08:13.46,130.37,-968.75,269.53,2.01,1.83,0.30,-183.75,-60.45,-46.50,32.77,134.42,
06/01/2021,01:08:13.47,129.88,-960.94,280.76,3.29,-1.59,0.12,-184.95,-60.00,-48.30,32.73,134.42,
06/01/2021,01:08:13.48,130.37,-974.61,270.02,1.34,-0.30,0.12,-184.50,-60.45,-47.25,32.82,134.42,
06/01/2021,01:08:13.49,126.95,-965.82,281.74,-0.37,-0.79,0.06,-185.85,-59.85,-47.85,32.82,134.42,
06/01/2021,01:08:13.49,141.11,-960.45,281.25,0.61,-0.85,2.01,-185.85,-59.85,-47.85,32.73,134.42,
06/01/2021,01:08:13.50,131.84,-962.40,265.14,-0.24,-0.79,-0.30,-185.70,-58.95,-48.30,32.77,134.42,
06/01/2021,01:08:13.50,132.32,-954.59,268.07,-0.67,-0.55,-0.67,-185.70,-58.95,-48.30,32.77,134.42,
06/01/2021,01:08:13.52,141.11,-979.00,283.20,-0.73,-1.22,2.13,-183.90,-60.60,-48.90,32.82,134.42,
06/01/2021,01:08:13.52,143.07,-973.14,271.48,0.43,-0.73,0.06,-183.90,-60.60,-48.90,32.92,134.42,
06/01/2021,01:08:13.52,116.21,-970.21,282.23,0.18,-1.95,2.20,-183.90,-60.60,-48.90,32.77,134.42,
06/01/2021,01:08:13.53,120.12,-962.89,288.57,-0.79,-0.67,0.24,-184.35,-59.85,-47.40,32.58,134.42,
06/01/2021,01:08:13.53,134.28,-966.31,284.67,-0.12,-2.26,1.40,-184.35,-59.85,-47.40,32.82,134.42,
06/01/2021,01:08:13.55,132.32,-965.33,278.32,1.28,-1.10,0.00,-185.10,-59.85,-48.15,32.73,134.42,
06/01/2021,01:08:13.60,129.88,-958.50,278.81,-0.79,0.18,0.49,-184.35,-59.85,-47.85,32.82,134.41,
06/01/2021,01:08:13.62,131.84,-960.45,267.09,0.24,-0.43,-1.40,-185.25,-59.70,-48.30,32.73,134.41,
06/01/2021,01:08:13.62,128.42,-956.54,263.18,0.91,-3.11,-1.40,-185.25,-59.70,-48.30,32.97,134.41,
06/01/2021,01:08:13.62,137.70,-958.01,267.58,1.22,-3.05,2.44,-185.25,-59.70,-48.30,32.97,134.41,
06/01/2021,01:08:13.64,124.02,-973.14,268.07,0.91,-2.38,-2.56,-184.50,-60.90,-46.95,32.77,134.41,
06/01/2021,01:08:13.64,132.32,-960.45,271.97,0.06,-0.61,-0.30,-184.50,-60.90,-46.95,32.92,134.41,
06/01/2021,01:08:13.65,132.81,-964.36,281.74,0.67,-3.35,-0.06,-184.65,-59.85,-48.60,32.39,134.41,
06/01/2021,01:08:13.65,129.88,-960.94,282.23,2.13,2.20,1.16,-184.65,-59.85,-48.60,32.92,134.41,
06/01/2021,01:08:13.66,131.84,-965.33,270.02,0.18,-0.12,0.30,-184.50,-60.00,-48.00,32.77,134.42,
06/01/2021,01:08:13.66,126.95,-958.98,271.97,1.28,-0.85,2.13,-184.50,-60.00,-48.00,32.53,134.42,
06/01/2021,01:08:13.68,132.81,-959.96,275.39,-0.30,-2.50,0.24,-185.25,-59.70,-47.25,32.92,134.41,
06/01/2021,01:08:13.68,135.74,-962.40,274.41,-0.43,-1.46,2.01,-185.25,-59.70,-47.25,32.77,134.41,
06/01/2021,01:08:13.69,131.35,-972.17,278.32,0.30,-0.18,1.65,-185.25,-59.70,-47.25,32.92,134.42,
06/01/2021,01:08:13.69,129.39,-961.43,269.53,-0.24,0.37,-0.61,-185.25,-59.70,-47.25,32.77,134.42,
06/01/2021,01:08:13.69,126.95,-965.82,275.88,1.95,-0.61,1.95,-185.25,-59.70,-47.25,32.73,134.42,
06/01/2021,01:08:13.71,123.05,-968.26,272.46,2.50,-1.46,-0.85,-184.20,-60.90,-49.80,32.58,134.42,
06/01/2021,01:08:13.71,135.74,-958.01,278.81,-0.37,0.67,-0.43,-184.20,-60.90,-49.80,32.82,134.42,
06/01/2021,01:08:13.72,134.77,-959.96,269.04,2.20,-0.79,0.37,-184.65,-60.30,-47.40,32.77,134.42,
06/01/2021,01:08:13.72,133.30,-967.29,276.86,0.30,-0.98,0.49,-184.65,-60.30,-47.40,32.73,134.42,
06/01/2021,01:08:13.73,132.32,-963.87,280.76,0.61,0.12,1.46,-185.25,-59.25,-48.75,32.58,134.42,
06/01/2021,01:08:13.74,133.79,-963.87,273.44,-0.06,-0.91,1.34,-185.25,-59.25,-48.75,32.92,134.42,
06/01/2021,01:08:13.75,132.81,-972.66,282.71,-0.24,1.28,-1.40,-185.10,-59.85,-48.60,32.73,134.42,
06/01/2021,01:08:13.75,130.37,-952.15,296.39,0.61,-0.24,0.24,-185.10,-59.85,-48.60,32.82,134.42,
06/01/2021,01:08:13.76,127.93,-962.40,284.18,1.28,-0.91,-0.06,-185.10,-59.85,-48.60,32.82,134.42,
06/01/2021,01:08:13.76,129.39,-968.75,283.20,0.24,-0.79,-0.98,-183.60,-59.85,-49.35,32.73,134.42,
06/01/2021,01:08:13.78,126.95,-955.57,277.83,1.77,-4.02,0.67,-184.20,-61.20,-46.20,32.58,134.42,
06/01/2021,01:08:13.78,119.14,-956.05,279.79,-1.77,-2.74,-0.98,-184.20,-61.20,-46.20,32.58,134.42,
06/01/2021,01:08:13.79,130.37,-958.01,287.11,1.83,0.30,0.37,-184.20,-61.20,-46.20,32.73,134.42,
06/01/2021,01:08:13.79,133.30,-953.12,282.71,-1.16,-0.18,-2.20,-184.20,-61.20,-46.20,32.77,134.42,
06/01/2021,01:08:13.80,125.49,-975.10,286.62,1.83,1.16,2.32,-184.65,-60.30,-47.10,32.82,134.42,
06/01/2021,01:08:13.81,129.39,-967.29,278.32,1.28,1.77,-1.16,-186.15,-59.55,-47.10,32.73,134.42,
06/01/2021,01:08:13.82,125.98,-976.07,286.13,1.16,-1.46,0.37,-186.15,-59.55,-47.10,32.63,134.42,
06/01/2021,01:08:13.82,134.77,-961.43,268.07,0.43,-1.22,-2.32,-185.25,-58.95,-48.00,32.73,134.42,
06/01/2021,01:08:13.83,131.35,-965.33,279.30,-0.61,0.91,-1.28,-185.25,-58.95,-48.00,32.63,134.42,
06/01/2021,01:08:13.83,121.58,-967.29,275.88,0.30,-0.67,-3.29,-182.10,-60.60,-48.90,32.73,134.42,
06/01/2021,01:08:13.83,138.67,-955.57,280.76,-1.65,-0.18,0.55,-182.10,-60.60,-48.90,32.82,134.42,
06/01/2021,01:08:13.85,142.58,-953.12,275.39,2.38,-1.59,-1.65,-184.50,-59.70,-46.50,32.92,134.42,
06/01/2021,01:08:13.85,128.91,-967.29,284.67,0.91,-2.38,0.79,-184.50,-59.70,-46.50,32.82,134.42,
06/01/2021,01:08:13.86,125.49,-966.80,270.51,-0.43,1.22,-1.77,-184.50,-59.70,-46.50,32.58,134.42,
06/01/2021,01:08:13.86,130.86,-952.15,287.11,0.91,-0.18,-0.43,-184.50,-59.70,-46.50,32.92,134.42,
06/01/2021,01:08:13.87,130.37,-956.54,279.79,1.59,-1.28,-1.59,-184.65,-59.55,-47.85,32.73,134.42,
06/01/2021,01:08:13.88,141.60,-965.82,280.27,0.24,-3.23,-0.30,-184.95,-60.90,-47.70,32.73,134.42,
06/01/2021,01:08:13.89,132.81,-965.82,279.79,0.55,0.91,-0.12,-184.65,-60.90,-47.70,32.82,134.42,
06/01/2021,01:08:13.89,150.88,-958.50,280.76,0.79,0.18,0.67,-184.65,-59.85,-47.85,32.82,134.42,
06/01/2021,01:08:13.90,125.49,-958.50,273.93,0.43,-2.01,-1.22,-184.65,-59.85,-47.85,32.63,134.42,
06/01/2021,01:08:13.90,124.02,-960.94,273.93,1.34,-1.34,-0.91,-184.20,-60.00,-48.75,33.06,134.42,
06/01/2021,01:08:13.92,130.86,-961.91,273.44,-0.61,0.30,1.04,-184.20,-60.00,-48.75,32.92,134.42,
06/01/2021,01:08:13.92,133.30,-963.38,281.25,-0.98,-0.12,-0.91,-184.95,-60.90,-46.50,33.06,134.42,
06/01/2021,01:08:13.92,135.25,-969.73,287.11,0.73,0.37,-2.93,-184.95,-60.90,-46.50,32.92,134.42,
06/01/2021,01:08:13.93,133.30,-969.24,281.74,0.49,0.37,2.01,-184.50,-60.00,-47.70,32.58,134.42,
06/01/2021,01:08:13.93,125.00,-958.98,273.44,0.30,0.06,2.20,-184.50,-60.00,-47.70,32.92,134.42,
06/01/2021,01:08:13.95,132.32,-955.57,271.00,0.37,1.77,-2.93,-183.90,-59.85,-47.10,32.77,134.42,
06/01/2021,01:08:13.95,141.60,-966.31,273.44,0.85,-0.67,2.26,-183.90,-59.85,-47.10,32.92,134.42,
06/01/2021,01:08:13.96,135.25,-971.19,282.23,-0.18,-0.79,1.40,-183.90,-59.85,-47.10,32.82,134.42,
06/01/2021,01:08:13.96,137.21,-969.24,284.67,0.55,-1.16,-1.04,-183.90,-59.85,-47.10,32.77,134.42,
06/01/2021,01:08:13.97,137.21,-975.10,280.27,1.34,-3.05,0.85,-183.90,-59.85,-47.10,32.73,134.42,
06/01/2021,01:08:13.98,131.35,-968.26,285.16,-0.18,-0.06,-0.91,-186.45,-60.90,-47.70,32.73,134.42,
06/01/2021,01:08:13.99,145.51,-961.91,275.88,1.71,1.46,-1.83,-186.45,-60.90,-47.70,32.92,134.42,
06/01/2021,01:08:13.99,134.28,-966.80,283.20,2.44,-0.98,-0.98,-184.65,-60.30,-48.15,32.92,134.42,
06/01/2021,01:08:13.99,142.09,-957.03,283.69,1.28,0.98,0.55,-184.65,-60.30,-48.15,32.82,134.42,
06/01/2021,01:08:14.00,136.72,-978.52,287.60,-1.22,-1.95,-0.85,-183.75,-59.70,-48.00,32.77,134.42,
06/01/2021,01:08:14.00,137.70,-949.71,280.27,0.37,-2.38,0.18,-183.75,-59.70,-48.00,32.77,134.42,
06/01/2021,01:08:14.02,132.81,-970.21,275.88,1.40,2.13,-1.40,-184.20,-58.95,-46.50,32.82,134.42,
06/01/2021,01:08:14.02,126.95,-952.64,275.39,-0.49,1.65,1.22,-184.20,-58.95,-46.50,32.92,134.42,
06/01/2021,01:08:14.03,129.88,-955.57,281.25,-0.37,-3.72,-2.01,-184.20,-58.95,-46.50,32.73,134.42,
06/01/2021,01:08:14.03,132.81,-970.70,283.69,1.71,-3.66,3.41,-184.20,-58.95,-46.50,32.63,134.42,
06/01/2021,01:08:14.04,136.72,-965.33,284.18,-0.55,0.06,3.05,-184.20,-58.95,-46.50,32.92,134.42,
06/01/2021,01:08:14.05,133.79,-963.87,276.37,0.43,0.43,-1.46,-184.95,-59.25,-47.25,32.77,134.42,
06/01/2021,01:08:14.06,148.93,-967.29,282.23,1.77,0.85,0.06,-184.95,-59.25,-47.25,32.82,134.42,
06/01/2021,01:08:14.11,135.74,-957.52,280.27,0.79,0.67,2.07,-185.25,-58.95,-46.95,32.53,134.42,
06/01/2021,01:08:14.12,141.60,-966.80,281.25,1.34,0.55,-0.24,-184.35,-60.30,-47.85,32.77,134.42,
06/01/2021,01:08:14.13,139.16,-954.10,274.90,-0.24,0.61,0.73,-184.35,-60.30,-47.85,32.73,134.42,
06/01/2021,01:08:14.14,130.37,-960.45,286.62,-1.46,-0.30,0.73,-184.20,-60.90,-49.05,32.63,134.41,
06/01/2021,01:08:14.15,130.37,-961.43,292.48,1.10,0.91,3.11,-184.20,-60.90,-49.05,32.82,134.41,
06/01/2021,01:08:14.15,127.44,-950.68,274.90,-0.49,-2.38,-0.49,-185.10,-59.85,-48.15,32.73,134.42,
06/01/2021,01:08:14.16,137.21,-967.29,275.39,0.98,-0.79,0.12,-185.10,-59.85,-48.15,32.92,134.42,
06/01/2021,01:08:14.16,137.70,-969.24,291.99,0.98,-1.28,0.37,-185.10,-59.85,-47.10,32.58,134.42,
06/01/2021,01:08:14.18,124.02,-949.22,272.46,1.10,-1.46,-1.04,-183.30,-59.85,-47.10,32.77,134.42,
06/01/2021,01:08:14.18,134.28,-954.59,284.67,0.18,1.89,0.49,-183.30,-59.85,-47.10,32.63,134.42,
06/01/2021,01:08:14.18,135.25,-956.54,270.02,0.61,-0.85,0.98,-183.30,-59.85,-47.10,32.82,134.42,
06/01/2021,01:08:14.19,131.35,-964.84,282.71,0.30,-2.13,0.43,-184.20,-58.95,-48.00,32.77,134.42,
06/01/2021,01:08:14.19,137.21,-957.52,284.18,2.26,2.07,2.07,-184.20,-58.95,-48.00,33.06,134.42,
06/01/2021,01:08:14.21,130.86,-955.57,272.95,0.67,-0.55,-0.30,-186.60,-61.05,-47.85,32.63,134.42,
06/01/2021,01:08:14.21,142.09,-964.84,277.34,-0.91,-0.79,-0.85,-186.60,-61.05,-47.85,33.06,134.42,
06/01/2021,01:08:14.22,128.91,-953.61,280.76,0.30,-0.55,1.34,-186.60,-61.05,-47.85,32.92,134.42,
06/01/2021,01:08:14.22,135.25,-959.96,277.34,-0.85,0.00,-1.34,-183.45,-58.50,-48.30,32.73,134.42,
06/01/2021,01:08:14.23,142.09,-969.24,282.23,0.12,-1.16,-2.26,-183.45,-58.50,-48.30,32.73,134.42,
06/01/2021,01:08:14.23,135.25,-960.45,273.44,0.61,2.13,1.46,-184.20,-58.95,-46.95,32.77,134.42,
06/01/2021,01:08:14.25,139.65,-960.45,279.79,-1.16,1.04,-0.30,-184.50,-59.70,-48.30,32.44,134.42,
06/01/2021,01:08:14.25,125.49,-969.24,285.16,0.91,2.44,-1.40,-184.50,-59.70,-48.30,32.73,134.42,
06/01/2021,01:08:14.25,134.28,-961.43,278.32,2.20,-2.44,-1.59,-184.50,-59.70,-48.30,32.82,134.42,
06/01/2021,01:08:14.26,134.77,-955.57,268.55,-1.34,-0.49,-0.85,-184.65,-60.30,-47.40,32.92,134.42,
06/01/2021,01:08:14.26,138.18,-967.29,278.32,-2.62,-1.46,-0.67,-184.65,-60.30,-47.40,32.58,134.42,
06/01/2021,01:08:14.28,141.60,-959.96,285.16,0.24,2.80,0.98,-184.65,-60.60,-47.85,32.73,134.42,
06/01/2021,01:08:14.28,123.54,-966.31,273.93,1.22,0.55,0.37,-184.65,-60.60,-47.85,32.58,134.42,
06/01/2021,01:08:14.29,141.11,-963.87,276.37,0.37,-1.46,0.12,-184.65,-60.60,-47.85,32.82,134.42,
06/01/2021,01:08:14.29,147.95,-961.91,290.04,1.34,-2.93,0.55,-183.60,-60.30,-48.60,32.73,134.42,
06/01/2021,01:08:14.30,136.23,-968.26,281.74,0.12,0.79,0.37,-183.60,-60.30,-48.60,32.58,134.42,
06/01/2021,01:08:14.31,129.88,-961.43,280.76,-1.10,0.37,-2.38,-186.00,-59.70,-47.25,32.63,134.42,
06/01/2021,01:08:14.32,135.25,-948.73,275.39,1.65,1.04,1.28,-186.00,-59.70,-47.25,32.63,134.42,
06/01/2021,01:08:14.32,130.37,-960.94,280.27,1.28,-0.67,-0.67,-185.10,-60.30,-47.10,32.77,134.42,
06/01/2021,01:08:14.32,133.30,-964.36,281.74,-0.06,-2.07,0.12,-185.10,-60.30,-47.10,32.73,134.42,
06/01/2021,01:08:14.33,142.09,-958.98,286.62,2.01,-2.87,0.12,-185.85,-59.55,-49.35,32.63,134.42,
06/01/2021,01:08:14.34,134.77,-981.93,283.69,0.24,0.91,0.67,-184.35,-60.30,-46.35,32.97,134.42,
06/01/2021,01:08:14.35,126.46,-954.10,291.99,0.67,-2.62,0.18,-184.35,-60.30,-46.35,33.06,134.42,
06/01/2021,01:08:14.35,138.18,-973.14,284.67,-0.55,3.29,-0.55,-184.35,-60.30,-46.35,32.82,134.42,
06/01/2021,01:08:14.36,140.62,-958.98,276.37,-1.89,-3.48,1.10,-184.35,-60.30,-46.35,32.92,134.42,
06/01/2021,01:08:14.36,139.16,-971.68,271.97,-0.06,-0.37,-0.73,-181.95,-60.45,-48.30,32.53,134.42,
06/01/2021,01:08:14.38,138.18,-969.73,294.92,0.30,-0.85,0.30,-184.95,-58.95,-46.95,32.73,134.42,
06/01/2021,01:08:14.39,142.09,-971.68,284.18,0.37,-3.84,0.00,-184.95,-58.95,-46.95,32.92,134.42,
06/01/2021,01:08:14.39,129.88,-959.47,288.57,0.79,-0.18,0.85,-185.40,-60.30,-48.60,32.77,134.42,
06/01/2021,01:08:14.39,136.23,-954.59,268.07,0.85,-1.89,-0.98,-185.40,-60.30,-48.60,32.82,134.42,
06/01/2021,01:08:14.40,148.93,-953.61,286.62,-0.06,-0.12,2.26,-184.20,-59.70,-48.00,32.73,134.42,
06/01/2021,01:08:14.40,143.55,-972.17,279.79,-0.61,0.85,2.87,-184.20,-59.70,-48.00,32.82,134.42,
06/01/2021,01:08:14.42,143.55,-956.05,274.90,-0.06,-0.24,-1.40,-185.70,-59.70,-48.00,32.73,134.42,
06/01/2021,01:08:14.42,146.48,-958.01,295.90,1.10,-2.20,0.12,-185.70,-59.70,-48.00,32.82,134.42,
06/01/2021,01:08:14.43,125.00,-953.12,281.25,0.55,0.12,1.65,-185.70,-59.70,-48.00,32.77,134.42,
06/01/2021,01:08:14.43,134.77,-967.29,282.71,0.24,-3.90,0.37,-186.45,-60.45,-48.30,32.73,134.42,
06/01/2021,01:08:14.44,140.62,-967.77,287.60,1.28,-2.87,1.77,-186.45,-60.45,-48.30,32.77,134.42,
06/01/2021,01:08:14.45,129.39,-951.66,288.57,1.71,-1.34,-0.67,-184.95,-60.00,-47.70,32.58,134.42,
06/01/2021,01:08:14.46,123.54,-958.98,284.18,1.22,-1.83,0.67,-184.95,-60.00,-47.70,33.06,134.42,
06/01/2021,01:08:14.46,138.18,-956.05,281.74,-0.85,-3.35,0.91,-185.25,-59.70,-45.75,32.82,134.42,
06/01/2021,01:08:14.47,133.30,-960.45,285.16,-0.06,-0.85,-0.24,-185.25,-59.70,-45.75,32.92,134.42,
06/01/2021,01:08:14.47,129.39,-964.84,284.67,-0.55,1.10,-0.67,-185.25,-59.70,-45.75,32.82,134.42,
06/01/2021,01:08:14.49,137.21,-960.45,281.25,-0.12,-0.61,-0.30,-185.10,-59.10,-46.80,32.82,134.42,
06/01/2021,01:08:14.49,140.62,-958.98,290.04,0.00,-0.85,-0.85,-184.65,-59.55,-48.15,32.92,134.42,
06/01/2021,01:08:14.49,143.55,-959.47,289.06,-0.30,-0.43,0.06,-184.65,-59.55,-48.15,32.58,134.42,
06/01/2021,01:08:14.50,139.65,-959.47,281.25,1.22,-2.32,1.40,-184.65,-59.55,-48.15,32.77,134.42,
06/01/2021,01:08:14.50,129.39,-946.29,274.41,-0.30,-2.20,-2.07,-183.75,-58.50,-48.00,32.82,134.42,
06/01/2021,01:08:14.52,134.28,-958.98,282.23,0.00,-1.46,-0.49,-183.90,-61.05,-46.80,32.97,134.42,
06/01/2021,01:08:14.52,119.14,-967.77,280.76,0.55,-1.40,1.46,-183.90,-61.05,-46.80,32.63,134.42,
06/01/2021,01:08:14.53,131.35,-956.54,280.27,2.07,-2.01,-0.06,-183.90,-61.05,-46.80,33.06,134.42,
06/01/2021,01:08:14.53,134.77,-962.89,289.55,3.29,0.43,-1.65,-183.45,-60.45,-47.70,32.58,134.42,
06/01/2021,01:08:14.54,144.04,-968.75,274.41,1.77,0.06,2.01,-183.45,-60.45,-47.70,32.77,134.42,
06/01/2021,01:08:14.55,132.81,-958.50,284.67,0.79,0.06,-3.05,-185.70,-60.00,-47.25,32.63,134.42,
06/01/2021,01:08:14.55,137.21,-956.05,279.30,2.62,1.34,0.06,-185.70,-60.00,-47.25,32.82,134.42,
06/01/2021,01:08:14.56,144.04,-957.03,278.32,-0.37,-0.06,1.46,-184.65,-59.55,-49.35,32.77,134.42,
06/01/2021,01:08:14.56,136.23,-963.38,269.04,1.77,0.79,-2.01,-184.65,-59.55,-49.35,32.73,134.42,
06/01/2021,01:08:14.62,135.25,-961.91,274.41,0.24,1.16,-1.10,-186.60,-60.60,-47.10,33.06,134.42,
06/01/2021,01:08:14.63,135.74,-946.78,284.67,0.55,-2.01,1.22,-186.00,-60.00,-46.95,32.82,134.42,
06/01/2021,01:08:14.65,137.21,-943.36,282.71,1.46,0.61,1.22,-186.00,-60.00,-46.95,32.92,134.42,
06/01/2021,01:08:14.65,133.30,-952.15,284.18,1.89,-0.67,0.91,-184.95,-58.95,-48.75,32.63,134.42,
06/01/2021,01:08:14.65,138.18,-942.87,283.69,1.34,-1.28,-1.71,-184.95,-58.95,-48.75,32.63,134.42,
06/01/2021,01:08:14.66,132.81,-952.15,291.99,3.11,1.52,0.98,-184.65,-59.85,-48.60,32.73,134.42,
06/01/2021,01:08:14.66,140.62,-966.31,289.06,-0.24,-1.65,3.17,-184.65,-59.85,-48.60,32.53,134.42,
06/01/2021,01:08:14.68,125.49,-958.98,278.32,0.12,-1.10,-0.43,-183.45,-58.20,-48.30,32.77,134.42,
06/01/2021,01:08:14.68,144.53,-967.29,284.18,0.30,-2.20,2.87,-185.40,-60.30,-47.40,32.63,134.42,
06/01/2021,01:08:14.69,145.02,-968.75,294.92,-0.67,-1.40,0.43,-185.40,-60.30,-47.40,32.82,134.42,
06/01/2021,01:08:14.69,139.65,-950.20,285.16,0.12,-0.30,-1.40,-185.40,-60.30,-47.40,32.82,134.42,
06/01/2021,01:08:14.70,143.07,-956.05,271.97,0.43,1.83,-0.73,-185.40,-60.30,-47.40,32.77,134.42,
06/01/2021,01:08:14.71,132.32,-973.14,277.83,0.43,-2.32,0.61,-184.50,-60.00,-47.25,32.82,134.42,
06/01/2021,01:08:14.72,136.23,-963.38,284.67,1.16,-2.20,2.74,-184.50,-60.00,-47.25,32.73,134.42,
06/01/2021,01:08:14.72,139.16,-963.87,281.25,-0.61,0.49,0.79,-184.95,-58.50,-48.00,32.97,134.42,
06/01/2021,01:08:14.72,141.60,-958.98,287.60,-0.79,0.85,3.23,-184.95,-58.50,-48.00,32.77,134.42,
06/01/2021,01:08:14.73,145.51,-963.38,281.74,1.77,-1.16,-0.85,-183.75,-57.30,-48.75,32.58,134.42,
06/01/2021,01:08:14.74,145.51,-968.26,276.37,1.52,1.59,0.67,-183.75,-57.30,-48.75,32.53,134.42,
06/01/2021,01:08:14.75,148.44,-967.29,291.02,1.04,-1.52,-2.01,-183.75,-57.30,-48.75,32.73,134.42,
06/01/2021,01:08:14.75,140.62,-965.33,278.32,0.43,-1.04,4.51,-184.35,-59.85,-48.90,32.82,134.42,
06/01/2021,01:08:14.76,143.55,-965.33,286.13,0.12,-0.67,0.79,-184.35,-59.85,-48.90,32.77,134.42,
06/01/2021,01:08:14.76,151.86,-949.71,290.53,0.00,-0.30,0.98,-184.35,-59.85,-48.90,32.63,134.42,
06/01/2021,01:08:14.78,138.67,-956.54,275.88,2.26,-3.11,2.80,-184.35,-59.10,-48.15,32.73,134.42,
06/01/2021,01:08:14.78,139.16,-960.45,279.30,1.71,-2.32,1.10,-185.25,-60.00,-46.20,32.58,134.42,
06/01/2021,01:08:14.79,148.44,-958.01,287.60,1.10,1.28,1.22,-185.25,-60.00,-46.20,32.73,134.42,
06/01/2021,01:08:14.79,132.81,-961.91,291.99,-2.74,-0.43,1.77,-184.50,-58.95,-48.00,32.92,134.42,
06/01/2021,01:08:14.80,146.48,-958.98,285.64,-0.18,1.46,1.89,-184.50,-58.95,-48.00,32.92,134.42,
06/01/2021,01:08:14.80,137.70,-960.45,290.53,0.30,-1.89,1.16,-185.40,-59.10,-48.90,32.77,134.42,
06/01/2021,01:08:14.82,144.53,-961.43,290.04,1.46,-0.73,-0.43,-185.40,-59.10,-48.90,32.92,134.42,
06/01/2021,01:08:14.82,129.88,-960.94,283.69,-0.37,-0.18,-0.98,-185.40,-59.10,-48.90,32.92,134.42,
06/01/2021,01:08:14.82,131.35,-957.52,285.64,0.91,2.07,3.60,-185.25,-59.70,-47.70,32.73,134.42,
06/01/2021,01:08:14.83,136.72,-962.40,282.71,-0.24,-2.20,1.10,-185.25,-59.70,-47.70,32.63,134.42,
06/01/2021,01:08:14.83,134.77,-959.47,291.50,-0.43,-0.98,1.46,-184.20,-59.70,-47.25,32.77,134.42,
06/01/2021,01:08:14.85,132.81,-964.36,294.43,-1.22,-1.34,3.23,-184.50,-59.70,-47.25,32.82,134.42,
06/01/2021,01:08:14.85,143.07,-961.43,291.02,-0.18,-1.04,2.80,-183.60,-59.55,-47.10,32.73,134.42,
06/01/2021,01:08:14.86,134.77,-961.91,285.64,-0.12,-1.46,1.83,-183.60,-59.55,-47.10,32.73,134.42,
06/01/2021,01:08:14.86,141.60,-964.36,282.23,-2.62,0.37,-0.37,-183.60,-59.55,-47.10,32.73,134.42,
06/01/2021,01:08:14.87,136.72,-971.19,284.67,1.77,-0.37,1.52,-183.60,-59.55,-47.10,32.92,134.42,
06/01/2021,01:08:14.88,130.37,-965.82,289.55,-0.43,0.12,-0.06,-186.15,-60.30,-46.80,32.92,134.42,
06/01/2021,01:08:14.89,131.84,-954.10,299.32,-1.71,0.73,0.24,-186.15,-60.30,-46.80,32.73,134.42,
06/01/2021,01:08:14.89,134.77,-962.40,278.81,0.30,-2.32,3.60,-186.15,-60.30,-46.80,32.82,134.42,
06/01/2021,01:08:14.89,143.55,-968.26,281.25,1.22,-1.65,3.23,-185.25,-58.50,-48.75,32.58,134.42,
06/01/2021,01:08:14.90,128.91,-959.47,277.34,-0.49,0.00,-2.26,-185.25,-58.50,-48.75,32.92,134.42,
06/01/2021,01:08:14.91,130.86,-959.47,281.74,-1.89,-1.34,2.38,-183.60,-58.35,-47.40,32.73,134.42,
06/01/2021,01:08:14.92,132.81,-962.89,288.57,1.16,0.43,0.37,-183.60,-58.35,-47.40,32.82,134.42,
06/01/2021,01:08:14.92,141.11,-963.38,277.34,0.98,-0.85,1.89,-184.95,-60.00,-46.95,32.92,134.42,
06/01/2021,01:08:14.93,131.35,-959.96,289.55,0.37,-1.22,0.55,-184.95,-60.00,-46.95,32.82,134.42,
06/01/2021,01:08:14.93,152.83,-952.15,282.71,0.24,0.18,1.89,-184.35,-59.85,-48.60,32.77,134.42,
06/01/2021,01:08:14.94,135.25,-951.66,282.23,2.44,-2.50,-0.49,-184.35,-59.85,-48.60,32.77,134.42,
06/01/2021,01:08:14.95,134.28,-960.94,278.81,1.22,0.18,2.38,-186.00,-59.70,-45.75,32.97,134.42,
06/01/2021,01:08:14.96,146.97,-969.24,280.76,-0.98,0.00,1.95,-186.00,-59.70,-45.75,32.73,134.42,
06/01/2021,01:08:14.96,130.37,-953.12,290.04,1.65,-1.46,0.43,-186.00,-59.70,-45.75,32.77,134.42,
06/01/2021,01:08:14.96,133.79,-960.94,286.62,-0.24,-0.61,1.16,-185.25,-59.70,-46.95,32.53,134.42,
06/01/2021,01:08:14.97,127.44,-954.59,294.92,1.46,-0.24,0.30,-185.25,-59.70,-46.95,32.77,134.42,
06/01/2021,01:08:14.99,140.62,-957.03,287.60,-0.43,-0.79,0.85,-184.50,-60.00,-48.75,32.92,134.42,
06/01/2021,01:08:14.99,137.21,-954.59,286.13,-1.10,0.49,1.59,-184.65,-59.55,-45.60,32.92,134.42,
06/01/2021,01:08:15.00,128.42,-976.07,272.95,-0.91,-0.30,-1.28,-184.65,-59.55,-45.60,32.92,134.42,
06/01/2021,01:08:15.00,124.51,-963.87,294.92,1.10,-4.21,0.73,-184.20,-59.70,-48.00,32.77,134.42,
06/01/2021,01:08:15.01,126.95,-961.43,285.64,-0.85,1.71,-0.18,-184.20,-59.70,-48.00,32.77,134.42,
06/01/2021,01:08:15.02,128.42,-962.40,284.18,0.73,-2.44,1.89,-185.40,-60.60,-47.10,32.77,134.42,
06/01/2021,01:08:15.03,133.79,-956.05,278.32,2.20,-2.32,1.46,-185.40,-60.60,-47.10,32.73,134.42,
06/01/2021,01:08:15.03,138.67,-972.17,289.55,0.30,1.22,2.62,-185.40,-60.60,-47.10,32.77,134.42,
06/01/2021,01:08:15.03,133.30,-965.82,287.60,1.04,0.43,1.46,-185.40,-60.60,-47.10,32.82,134.42,
06/01/2021,01:08:15.04,138.67,-961.91,287.11,0.24,-3.35,0.00,-185.40,-60.60,-47.10,32.92,134.42,
06/01/2021,01:08:15.05,141.11,-957.52,271.48,2.13,-0.18,0.06,-184.35,-58.35,-46.35,32.63,134.42,
06/01/2021,01:08:15.06,135.25,-961.43,288.57,-1.16,-1.59,0.55,-184.35,-58.35,-46.35,32.77,134.42,
06/01/2021,01:08:15.06,127.44,-963.87,288.57,1.89,-2.01,-1.34,-184.50,-59.70,-47.25,32.97,134.42,
06/01/2021,01:08:15.07,136.23,-955.57,276.86,0.55,0.67,1.34,-184.50,-59.70,-47.25,32.39,134.42,
06/01/2021,01:08:15.07,143.07,-963.87,295.41,-2.50,0.49,-0.61,-183.45,-58.50,-47.25,32.73,134.42,
06/01/2021,01:08:15.16,132.81,-962.89,289.06,-1.46,0.12,-0.85,-185.40,-59.55,-48.15,32.73,134.41,
06/01/2021,01:08:15.17,134.77,-954.59,290.53,0.91,2.13,-2.07,-186.15,-59.85,-46.35,33.11,134.41,
06/01/2021,01:08:15.17,129.88,-957.52,281.74,0.73,0.24,0.98,-183.90,-60.60,-46.80,32.77,134.41,
06/01/2021,01:08:15.18,139.16,-959.96,284.18,0.61,0.18,0.00,-183.90,-60.60,-46.80,32.63,134.41,
06/01/2021,01:08:15.18,135.74,-954.59,288.57,0.43,-1.04,-1.65,-184.65,-58.65,-47.10,32.92,134.41,
06/01/2021,01:08:15.19,142.09,-948.73,271.00,1.16,1.71,-2.32,-184.65,-58.65,-47.10,32.92,134.42,
06/01/2021,01:08:15.20,137.21,-964.84,279.30,0.43,-0.06,0.06,-184.35,-58.35,-48.15,32.73,134.41,
06/01/2021,01:08:15.21,130.37,-961.91,290.04,1.22,-1.52,0.55,-184.35,-58.35,-48.15,32.77,134.41,
06/01/2021,01:08:15.21,135.74,-966.80,286.62,1.10,0.61,0.73,-186.00,-58.95,-48.15,32.58,134.42,
06/01/2021,01:08:15.22,136.72,-960.45,275.88,-0.49,1.71,0.73,-186.00,-58.95,-46.20,32.92,134.42,
06/01/2021,01:08:15.22,131.84,-962.40,280.27,2.26,-0.61,0.18,-186.00,-58.95,-46.20,32.97,134.42,
06/01/2021,01:08:15.24,135.25,-967.29,298.34,1.77,2.07,1.34,-185.85,-59.85,-47.10,32.92,134.41,
06/01/2021,01:08:15.24,143.55,-965.33,287.11,2.13,-0.98,-2.32,-185.85,-59.85,-47.10,32.82,134.42,
06/01/2021,01:08:15.24,131.84,-963.38,285.16,0.55,-1.71,-0.55,-184.50,-59.70,-47.25,32.63,134.42,
06/01/2021,01:08:15.25,143.07,-958.01,293.95,0.06,-2.26,-0.73,-184.50,-59.70,-47.25,32.77,134.42,
06/01/2021,01:08:15.25,131.35,-962.89,298.83,1.89,-2.01,-1.83,-184.50,-59.70,-47.25,32.73,134.42,
06/01/2021,01:08:15.27,140.62,-965.82,285.16,-0.79,2.32,-3.11,-185.10,-60.30,-48.15,32.73,134.42,
06/01/2021,01:08:15.27,138.18,-962.40,283.69,0.06,-1.77,-2.13,-185.70,-60.45,-46.95,32.82,134.42,
06/01/2021,01:08:15.28,143.07,-968.26,281.25,2.87,-0.98,-1.22,-185.70,-60.45,-46.95,32.73,134.42,
06/01/2021,01:08:15.28,147.95,-958.98,281.74,0.61,-0.06,0.98,-185.25,-59.25,-48.00,32.82,134.42,
06/01/2021,01:08:15.29,133.79,-955.57,281.74,0.00,-2.13,0.06,-185.25,-59.25,-48.00,32.82,134.42,
06/01/2021,01:08:15.30,127.93,-957.03,284.67,-1.22,-1.52,-0.30,-184.50,-59.70,-47.25,32.82,134.42,
06/01/2021,01:08:15.30,135.74,-968.75,284.67,0.00,0.73,-4.09,-184.50,-59.70,-47.25,32.63,134.42,
06/01/2021,01:08:15.31,128.42,-959.47,291.50,1.22,-1.22,1.83,-184.50,-59.70,-47.25,32.73,134.42,
06/01/2021,01:08:15.31,141.60,-948.73,285.64,-0.43,0.67,-0.98,-184.95,-60.00,-48.75,32.92,134.42,
06/01/2021,01:08:15.32,141.11,-965.33,286.13,0.18,-1.95,-0.91,-184.95,-60.00,-48.75,32.92,134.42,
06/01/2021,01:08:15.33,143.07,-960.94,292.97,-0.37,-2.07,0.00,-186.15,-60.60,-48.15,32.92,134.42,
06/01/2021,01:08:15.34,143.07,-957.03,280.76,1.71,-1.83,2.26,-186.15,-60.60,-48.15,33.06,134.42,
06/01/2021,01:08:15.34,141.11,-966.31,292.97,0.30,-0.79,0.30,-184.65,-59.85,-46.80,32.92,134.42,
06/01/2021,01:08:15.35,140.14,-965.82,294.92,-1.10,-1.28,-0.24,-184.65,-59.85,-46.80,32.44,134.42,
06/01/2021,01:08:15.35,139.65,-960.94,291.02,1.59,0.85,-1.89,-185.10,-59.10,-48.15,32.92,134.42,
06/01/2021,01:08:15.36,138.18,-950.68,289.55,-0.24,0.79,1.28,-185.10,-59.10,-48.15,32.73,134.42,
06/01/2021,01:08:15.40,145.51,-958.01,277.83,-0.12,-0.24,0.37,-185.10,-60.60,-47.10,32.77,134.41,
06/01/2021,01:08:15.40,141.11,-954.10,280.76,0.49,-1.22,-0.24,-185.10,-60.60,-47.10,32.73,134.41,
06/01/2021,01:08:15.40,147.95,-971.19,276.86,0.12,0.61,1.10,-183.90,-59.85,-47.40,32.63,134.42,
06/01/2021,01:08:15.41,148.44,-966.80,292.97,0.73,-0.98,0.79,-183.90,-59.85,-47.40,32.97,134.42,
06/01/2021,01:08:15.41,142.09,-959.47,282.23,-1.04,-4.21,-0.12,-183.75,-58.95,-47.25,32.82,134.42,
06/01/2021,01:08:15.43,130.37,-948.73,277.83,-1.89,-0.73,0.06,-183.75,-58.95,-47.25,32.73,134.42,
06/01/2021,01:08:15.43,134.28,-966.80,280.27,3.17,-1.46,1.16,-185.10,-59.55,-47.85,32.92,134.42,
06/01/2021,01:08:15.44,129.39,-960.94,286.13,1.16,0.06,-0.55,-185.10,-59.55,-47.85,32.58,134.42,
06/01/2021,01:08:15.44,135.25,-972.66,281.25,-1.52,0.18,-1.95,-185.10,-59.55,-48.15,32.73,134.42,
06/01/2021,01:08:15.45,150.88,-956.54,274.90,-1.22,0.30,-1.65,-185.10,-59.55,-48.15,32.92,134.42,
06/01/2021,01:08:15.46,141.60,-948.24,284.67,0.67,-1.89,-1.10,-183.45,-59.25,-46.95,32.97,134.42,
06/01/2021,01:08:15.47,150.88,-953.61,296.88,-0.43,-2.68,1.52,-183.45,-59.25,-46.95,32.92,134.42,
06/01/2021,01:08:15.47,139.65,-951.17,293.95,0.43,2.87,-1.89,-183.45,-59.25,-46.95,32.63,134.42,
06/01/2021,01:08:15.48,140.62,-956.05,289.06,2.01,1.22,2.26,-183.45,-59.25,-46.95,32.82,134.42,
06/01/2021,01:08:15.48,131.84,-955.08,277.83,0.61,-2.07,1.46,-183.45,-59.25,-46.95,32.73,134.42,
06/01/2021,01:08:15.50,143.55,-967.77,288.57,-0.91,-2.13,-0.98,-184.50,-59.70,-48.30,32.73,134.42,
06/01/2021,01:08:15.50,140.14,-959.96,292.48,0.67,-0.73,1.04,-184.50,-59.70,-48.30,32.73,134.42,
06/01/2021,01:08:15.50,149.90,-956.54,294.92,-1.22,-2.44,-0.79,-185.10,-60.30,-47.40,32.63,134.42,
06/01/2021,01:08:15.51,145.51,-955.57,284.18,0.00,1.10,-0.98,-185.10,-60.30,-47.40,32.92,134.42,
06/01/2021,01:08:15.51,141.60,-961.43,279.79,-1.28,1.71,-0.43,-186.00,-58.95,-48.75,32.63,134.42,
06/01/2021,01:08:15.53,152.83,-957.03,277.34,-0.12,0.18,3.17,-186.75,-61.20,-47.70,32.73,134.42,
06/01/2021,01:08:15.53,139.65,-954.10,291.02,-0.24,-0.73,0.67,-185.10,-59.10,-48.90,32.82,134.42,
06/01/2021,01:08:15.54,138.18,-960.45,286.62,-0.24,-2.99,-0.12,-185.10,-59.10,-48.90,32.63,134.42,
06/01/2021,01:08:15.54,149.90,-959.47,291.50,-2.20,-1.83,0.79,-185.10,-59.10,-48.90,32.97,134.42,
06/01/2021,01:08:15.55,129.39,-965.33,281.74,-0.73,0.18,1.34,-185.10,-59.10,-48.90,32.92,134.42,
06/01/2021,01:08:15.55,140.62,-957.03,291.99,-0.18,-2.13,0.79,-185.10,-59.10,-48.90,32.73,134.42,
06/01/2021,01:08:15.57,134.77,-969.73,288.09,-0.30,-1.34,1.59,-184.35,-60.60,-48.60,32.73,134.42,
06/01/2021,01:08:15.57,144.04,-952.64,287.60,-0.49,-1.16,0.67,-184.35,-60.60,-48.60,32.73,134.42,
06/01/2021,01:08:15.57,133.79,-958.98,276.37,-0.49,-2.07,0.18,-184.20,-57.30,-48.30,32.73,134.42,
06/01/2021,01:08:15.58,152.34,-966.80,281.25,-0.61,-0.67,2.80,-184.20,-57.30,-48.30,32.97,134.42,
06/01/2021,01:08:15.58,131.84,-952.64,287.11,-1.34,-0.24,1.59,-183.90,-58.65,-47.40,32.53,134.42,
06/01/2021,01:08:15.64,132.32,-953.12,281.25,-2.20,0.43,0.85,-185.70,-59.70,-48.75,32.92,134.41,
06/01/2021,01:08:15.65,134.77,-949.22,273.44,-2.01,-0.12,1.95,-185.70,-59.70,-48.75,32.82,134.41,
06/01/2021,01:08:15.65,146.97,-961.43,284.67,-1.04,0.30,3.60,-184.35,-59.55,-49.65,32.92,134.41,
06/01/2021,01:08:15.66,146.48,-970.70,276.37,0.73,-2.07,3.29,-184.35,-59.55,-49.65,32.92,134.41,
06/01/2021,01:08:15.66,134.77,-965.82,282.71,-0.73,0.49,0.79,-183.00,-59.55,-49.65,32.77,134.41,
06/01/2021,01:08:15.68,146.48,-950.20,281.74,-1.95,0.30,1.83,-186.15,-58.35,-47.85,32.73,134.41,
06/01/2021,01:08:15.68,141.60,-963.87,286.13,-0.91,-3.72,1.28,-186.15,-58.35,-47.85,32.58,134.41,
06/01/2021,01:08:15.69,130.37,-958.01,277.83,-0.06,-0.61,0.73,-184.65,-61.05,-48.60,32.97,134.41,
06/01/2021,01:08:15.69,137.21,-958.98,284.18,-0.79,1.04,1.46,-184.65,-61.05,-48.60,32.77,134.41,
06/01/2021,01:08:15.69,142.09,-958.98,282.23,-1.22,0.67,3.60,-184.95,-59.70,-48.75,32.63,134.41,
06/01/2021,01:08:15.71,133.30,-952.15,282.71,0.18,-1.22,2.68,-184.95,-60.90,-49.05,32.63,134.41,
06/01/2021,01:08:15.71,142.58,-959.47,288.09,-1.59,-1.59,3.05,-184.95,-60.90,-49.05,32.77,134.41,
06/01/2021,01:08:15.72,154.30,-965.82,278.32,-1.46,0.67,2.80,-184.95,-60.90,-49.05,33.11,134.41,
06/01/2021,01:08:15.72,145.51,-971.68,280.76,0.43,-2.56,1.89,-183.75,-60.00,-48.75,32.73,134.41,
06/01/2021,01:08:15.73,137.70,-967.29,293.95,-1.83,-3.29,1.40,-183.75,-60.00,-48.75,32.82,134.42,
06/01/2021,01:08:15.74,129.88,-950.68,280.27,-1.77,2.01,0.67,-183.60,-59.10,-46.35,32.73,134.41,
06/01/2021,01:08:15.75,155.76,-951.66,284.67,-0.30,-0.49,3.17,-183.90,-59.10,-46.35,32.92,134.41,
06/01/2021,01:08:15.75,139.65,-969.24,285.64,-1.10,-2.44,0.73,-183.90,-59.10,-46.35,32.58,134.42,
06/01/2021,01:08:15.76,136.72,-955.57,275.39,0.30,-1.34,1.83,-185.85,-59.85,-48.60,32.92,134.42,
06/01/2021,01:08:15.76,136.72,-955.57,290.04,-2.07,-2.87,1.04,-185.85,-59.85,-48.60,32.82,134.42,
06/01/2021,01:08:15.77,140.62,-961.91,279.30,-1.22,0.67,3.66,-185.85,-59.85,-48.60,32.63,134.42,
06/01/2021,01:08:15.78,138.18,-963.87,286.62,-0.55,-0.37,0.49,-186.00,-59.25,-48.00,32.58,134.42,
06/01/2021,01:08:15.78,142.09,-962.40,285.16,1.16,0.73,2.32,-185.25,-59.25,-47.25,32.58,134.42,
06/01/2021,01:08:15.79,149.90,-963.38,294.43,-2.26,0.00,0.98,-185.25,-59.25,-47.25,33.06,134.42,
06/01/2021,01:08:15.79,125.98,-958.01,289.06,-1.46,-0.24,0.91,-183.90,-59.55,-48.60,32.58,134.42,
06/01/2021,01:08:15.80,147.46,-975.10,279.79,-0.98,-0.67,1.16,-183.90,-59.55,-48.60,32.44,134.42,
06/01/2021,01:08:15.81,131.35,-972.17,279.30,-1.77,0.18,1.52,-185.25,-58.50,-47.70,32.97,134.42,
06/01/2021,01:08:15.82,143.07,-952.15,282.23,0.06,-3.66,-0.24,-185.25,-58.50,-47.70,32.73,134.42,
06/01/2021,01:08:15.82,141.11,-960.45,284.18,-0.73,-4.88,1.40,-185.25,-58.50,-47.70,32.77,134.42,
06/01/2021,01:08:15.83,126.46,-956.54,276.86,0.73,-0.55,0.30,-184.20,-60.00,-47.70,32.63,134.42,
06/01/2021,01:08:15.83,139.65,-964.36,288.57,-0.43,0.37,2.13,-184.20,-60.00,-47.70,32.77,134.42,
06/01/2021,01:08:15.85,143.07,-977.05,276.86,-0.30,0.30,0.85,-185.40,-61.05,-47.85,32.73,134.42,
06/01/2021,01:08:15.85,138.18,-966.31,286.13,-0.18,-1.89,2.38,-185.40,-61.05,-47.85,32.82,134.42,
06/01/2021,01:08:15.85,151.86,-962.89,284.18,-1.34,-1.22,1.65,-183.90,-59.10,-47.10,32.82,134.42,
06/01/2021,01:08:15.86,133.30,-960.94,292.97,0.85,-1.28,0.79,-183.90,-59.10,-47.10,32.92,134.42,
06/01/2021,01:08:15.86,146.97,-956.05,276.37,-0.67,-1.40,1.89,-185.25,-60.90,-47.70,32.73,134.42,
06/01/2021,01:08:15.88,139.16,-955.57,288.09,-0.67,-1.89,2.56,-184.65,-60.60,-47.40,32.92,134.42,
06/01/2021,01:08:15.88,140.14,-957.03,276.86,0.98,-1.95,2.99,-184.65,-60.60,-47.40,32.82,134.42,
06/01/2021,01:08:15.89,152.83,-962.40,274.41,0.98,-1.83,2.20,-184.65,-60.60,-47.40,32.92,134.42,
06/01/2021,01:08:15.89,134.77,-970.70,279.79,-2.74,-1.04,-1.04,-184.65,-60.60,-47.40,32.92,134.42,
06/01/2021,01:08:15.90,141.11,-960.45,275.39,-0.37,-0.18,1.59,-183.30,-58.65,-48.15,32.77,134.42,
06/01/2021,01:08:15.91,139.65,-957.03,277.34,-1.77,0.91,-0.37,-185.85,-59.85,-47.85,32.82,134.42,
06/01/2021,01:08:15.92,130.37,-962.89,281.74,-0.67,1.16,-0.73,-185.10,-59.85,-47.10,32.82,134.42,
06/01/2021,01:08:15.92,134.28,-954.10,281.25,-1.46,-1.52,0.85,-185.10,-59.85,-47.10,32.63,134.42,
06/01/2021,01:08:15.93,131.35,-962.40,285.64,1.71,0.49,1.65,-185.10,-58.35,-48.90,32.82,134.42,
06/01/2021,01:08:15.93,125.98,-967.77,286.13,-0.30,-1.83,4.15,-185.10,-58.35,-48.90,32.58,134.42,
06/01/2021,01:08:15.93,137.21,-958.98,265.62,-1.40,-0.24,0.91,-185.10,-58.35,-48.90,32.92,134.42,
06/01/2021,01:08:15.95,134.77,-954.10,282.23,0.18,-0.37,0.98,-183.75,-60.45,-48.00,32.82,134.42,
06/01/2021,01:08:15.95,129.39,-965.33,285.16,-0.37,-2.38,2.32,-184.65,-59.55,-48.90,32.73,134.42,
06/01/2021,01:08:15.96,130.37,-958.98,283.20,-1.16,1.10,1.77,-184.65,-59.55,-48.90,32.92,134.42,
06/01/2021,01:08:15.96,143.55,-963.87,291.02,0.49,-1.59,0.73,-184.65,-59.55,-48.90,32.39,134.42,
06/01/2021,01:08:15.97,127.93,-950.20,278.32,-0.61,3.11,1.71,-183.90,-59.10,-48.60,32.92,134.42,
06/01/2021,01:08:15.98,136.23,-965.82,288.09,-0.55,-2.80,-3.05,-183.60,-59.10,-49.95,32.58,134.42,
06/01/2021,01:08:15.99,132.32,-947.27,277.34,0.12,-0.18,5.00,-183.60,-59.10,-49.95,32.73,134.42,
06/01/2021,01:08:15.99,131.84,-956.54,280.27,1.22,-1.16,-0.67,-183.60,-59.10,-49.95,32.73,134.42,
06/01/2021,01:08:16.00,134.28,-966.31,271.97,-1.46,-1.71,3.48,-185.85,-59.10,-47.10,32.77,134.42,
06/01/2021,01:08:16.00,133.79,-945.31,270.51,-1.59,-3.60,0.43,-185.85,-59.10,-47.10,32.82,134.42,
06/01/2021,01:08:16.02,134.28,-960.45,290.04,-0.79,1.04,0.30,-185.25,-61.20,-46.50,32.77,134.42,
06/01/2021,01:08:16.02,140.62,-963.87,279.30,0.00,-1.28,1.52,-185.25,-61.20,-46.50,32.92,134.42,
06/01/2021,01:08:16.02,129.39,-958.01,285.16,-1.46,-2.13,-0.18,-184.65,-58.65,-46.80,32.73,134.42,
06/01/2021,01:08:16.03,136.72,-957.52,287.11,-0.61,-0.24,2.07,-184.65,-58.65,-46.80,32.82,134.42,
06/01/2021,01:08:16.03,124.51,-958.01,286.13,-1.34,0.30,1.40,-184.65,-58.65,-46.80,32.73,134.42,
06/01/2021,01:08:16.05,138.67,-966.80,282.23,0.91,-1.04,2.07,-185.25,-60.45,-48.00,32.73,134.42,
06/01/2021,01:08:16.05,141.11,-958.50,287.60,1.16,-2.74,1.40,-185.25,-60.45,-48.00,32.92,134.42,
06/01/2021,01:08:16.06,135.25,-954.10,281.74,-1.10,-2.13,0.91,-185.25,-60.45,-48.00,32.77,134.42,
06/01/2021,01:08:16.06,141.11,-950.20,276.86,-1.40,0.55,-0.12,-185.25,-60.45,-48.00,32.82,134.42,
06/01/2021,01:08:16.07,140.62,-968.26,289.55,-2.44,1.77,1.65,-183.90,-58.35,-47.85,32.73,134.42,
06/01/2021,01:08:16.08,136.23,-964.84,271.97,-0.79,-1.04,1.52,-184.65,-59.55,-47.40,32.73,134.42,
06/01/2021,01:08:16.09,127.93,-944.82,280.76,0.61,-1.28,2.13,-183.45,-60.00,-45.75,32.92,134.42,
06/01/2021,01:08:16.09,142.58,-954.59,278.32,-0.98,-1.04,2.74,-183.45,-60.00,-45.75,32.73,134.42,
06/01/2021,01:08:16.09,128.42,-957.03,279.30,0.37,-0.55,3.84,-184.35,-59.10,-46.80,32.73,134.42,
06/01/2021,01:08:16.10,137.70,-961.43,276.37,-1.46,-1.59,-0.98,-184.35,-59.10,-46.80,32.77,134.42,
06/01/2021,01:08:16.16,127.93,-961.43,285.64,-1.10,-0.12,0.00,-187.05,-60.00,-47.25,32.77,134.42,
06/01/2021,01:08:16.18,141.11,-964.36,281.25,1.59,-2.01,1.83,-186.00,-60.00,-48.30,32.92,134.41,
06/01/2021,01:08:16.18,130.37,-963.87,283.69,-2.38,-1.95,0.85,-186.00,-60.00,-48.30,32.97,134.41,
06/01/2021,01:08:16.18,127.93,-966.80,265.14,-0.73,-0.98,-2.50,-185.25,-58.95,-48.75,32.58,134.42,
06/01/2021,01:08:16.19,126.95,-954.10,278.81,0.85,2.20,1.46,-185.25,-58.95,-48.75,33.11,134.42,
06/01/2021,01:08:16.19,137.70,-963.38,277.83,-1.52,0.43,-1.10,-184.50,-57.75,-47.25,32.82,134.42,
06/01/2021,01:08:16.21,142.09,-959.96,278.32,1.77,-1.04,1.65,-184.50,-60.45,-46.95,32.97,134.42,
06/01/2021,01:08:16.21,126.95,-961.43,277.83,0.79,0.73,-0.12,-184.50,-60.45,-46.95,32.73,134.42,
06/01/2021,01:08:16.22,125.49,-953.12,272.46,-0.49,-1.22,1.95,-184.35,-60.60,-48.90,32.63,134.42,
06/01/2021,01:08:16.22,127.44,-959.47,270.02,0.12,0.24,2.62,-184.35,-60.60,-48.90,33.06,134.42,
06/01/2021,01:08:16.23,125.49,-956.05,284.67,-2.56,0.91,0.49,-184.35,-60.60,-48.90,32.58,134.42,
06/01/2021,01:08:16.24,133.79,-965.82,267.58,0.55,0.91,-2.32,-184.35,-61.05,-47.85,32.73,134.42,
06/01/2021,01:08:16.25,144.53,-964.36,285.64,0.18,-1.77,-2.56,-185.40,-61.35,-46.05,32.77,134.42,
06/01/2021,01:08:16.25,130.86,-946.78,278.81,-1.22,-1.59,-0.61,-185.40,-61.35,-46.05,32.63,134.42,
06/01/2021,01:08:16.26,141.11,-962.40,271.48,0.49,-1.04,-1.22,-183.60,-59.55,-47.40,32.92,134.42,
06/01/2021,01:08:16.26,141.11,-956.54,277.83,-0.61,-0.67,0.24,-183.60,-59.55,-47.40,32.77,134.42,
06/01/2021,01:08:16.28,127.44,-957.03,270.02,2.32,-0.49,1.28,-184.65,-60.30,-48.90,32.82,134.42,
06/01/2021,01:08:16.28,139.65,-966.31,279.30,0.00,-0.98,0.67,-184.65,-60.30,-48.90,32.82,134.42,
06/01/2021,01:08:16.29,131.84,-956.54,266.60,0.61,-0.79,0.30,-184.35,-59.85,-48.15,32.39,134.42,
06/01/2021,01:08:16.29,143.07,-974.12,280.27,-1.04,0.98,1.34,-184.35,-59.85,-48.15,32.92,134.42,
06/01/2021,01:08:16.30,142.58,-952.64,279.30,-0.43,-2.87,0.43,-182.85,-60.30,-47.85,32.73,134.42,
06/01/2021,01:08:16.31,130.86,-960.94,277.34,0.18,-2.07,-0.49,-185.40,-59.10,-48.90,32.63,134.42,
06/01/2021,01:08:16.32,135.74,-968.75,277.83,0.24,-1.34,-0.37,-186.00,-58.50,-49.05,32.82,134.42,
06/01/2021,01:08:16.32,136.23,-958.98,278.81,-0.67,-1.52,1.04,-186.00,-58.50,-49.05,32.92,134.42,
06/01/2021,01:08:16.32,139.65,-964.84,277.83,-0.06,-0.85,0.18,-186.00,-58.50,-49.05,32.73,134.42,
06/01/2021,01:08:16.33,117.19,-970.21,281.74,-1.95,0.55,0.61,-186.00,-58.50,-49.05,32.73,134.42,
06/01/2021,01:08:16.34,133.79,-962.89,284.67,2.26,-2.32,1.89,-185.70,-61.65,-47.25,32.92,134.42,
06/01/2021,01:08:16.35,138.67,-962.89,268.07,-1.22,-0.30,0.91,-185.70,-61.65,-47.25,32.73,134.42,
06/01/2021,01:08:16.35,117.68,-964.84,278.81,0.24,-0.12,2.38,-185.70,-61.65,-47.25,32.82,134.42,
06/01/2021,01:08:16.36,133.79,-953.61,280.27,-0.98,-0.73,0.30,-185.70,-60.00,-48.30,32.92,134.42,
06/01/2021,01:08:16.36,131.35,-958.50,279.79,-0.73,3.23,2.13,-185.70,-60.00,-48.30,32.77,134.42,
06/01/2021,01:08:16.37,132.81,-963.38,284.67,1.16,0.06,1.16,-182.85,-60.30,-48.90,32.92,134.42,
06/01/2021,01:08:16.38,132.32,-965.82,274.90,0.49,-1.83,1.59,-182.85,-60.30,-48.90,32.77,134.42,
06/01/2021,01:08:16.39,133.79,-963.87,280.27,-1.28,-0.55,2.56,-185.25,-60.45,-46.95,32.82,134.42,
06/01/2021,01:08:16.39,131.35,-964.84,275.88,-1.46,0.67,0.49,-185.25,-60.45,-46.95,32.73,134.42,
06/01/2021,01:08:16.40,135.74,-961.91,279.79,0.12,-2.32,0.73,-185.25,-60.45,-46.95,32.82,134.42,
06/01/2021,01:08:16.40,136.72,-960.45,279.79,-0.49,-0.12,1.28,-185.25,-60.45,-46.95,32.73,134.42,
06/01/2021,01:08:16.42,133.30,-963.87,277.34,-0.85,0.06,0.30,-185.40,-60.60,-47.85,32.82,134.42,
06/01/2021,01:08:16.42,125.98,-963.87,279.30,-1.16,-1.16,-1.46,-185.40,-60.60,-47.85,32.97,134.42,
06/01/2021,01:08:16.42,131.84,-975.10,276.37,0.79,1.40,1.83,-185.40,-60.60,-47.85,32.73,134.42,
06/01/2021,01:08:16.43,142.09,-950.68,269.53,-0.30,-0.61,0.67,-183.90,-59.55,-47.40,32.92,134.42,
06/01/2021,01:08:16.43,132.81,-959.47,287.60,-1.16,-0.73,-0.61,-183.90,-59.55,-47.40,32.92,134.42,
06/01/2021,01:08:16.45,135.74,-950.68,278.32,-0.18,-1.77,-1.10,-185.40,-59.10,-47.40,32.92,134.42,
06/01/2021,01:08:16.45,136.72,-973.14,278.32,-1.95,-1.65,-0.24,-185.40,-59.10,-47.40,32.92,134.42,
06/01/2021,01:08:16.46,132.32,-965.82,275.88,-0.18,-1.71,1.77,-184.95,-60.00,-46.50,32.39,134.42,
06/01/2021,01:08:16.46,130.86,-962.40,286.62,0.49,0.37,-0.55,-184.95,-60.00,-46.50,32.92,134.42,
06/01/2021,01:08:16.47,137.70,-956.54,281.25,1.40,-2.32,1.16,-185.10,-60.30,-49.65,32.82,134.42,
06/01/2021,01:08:16.48,118.65,-969.24,278.32,0.37,0.79,1.59,-185.25,-61.65,-47.70,32.73,134.42,
06/01/2021,01:08:16.49,140.62,-949.71,270.51,0.61,-1.52,0.30,-184.20,-60.00,-47.25,32.77,134.42,
06/01/2021,01:08:16.49,143.55,-958.98,280.76,1.16,-2.26,-1.22,-184.20,-60.00,-47.25,32.92,134.42,
06/01/2021,01:08:16.49,136.72,-949.22,271.97,1.10,-1.34,-0.85,-184.20,-60.00,-47.25,32.77,134.42,
06/01/2021,01:08:16.50,137.21,-962.89,274.41,-2.13,1.71,0.67,-184.20,-60.00,-47.25,32.92,134.42,
06/01/2021,01:08:16.51,137.70,-962.89,279.30,-0.98,-2.38,-0.30,-184.20,-59.70,-48.30,32.82,134.42,
06/01/2021,01:08:16.52,128.42,-968.75,288.09,0.55,-2.50,-0.61,-185.40,-60.60,-47.10,32.92,134.42,
06/01/2021,01:08:16.52,122.56,-975.59,276.86,0.24,-0.30,0.85,-185.40,-60.60,-47.10,32.82,134.42,
06/01/2021,01:08:16.53,137.70,-968.26,282.71,0.85,-1.04,0.91,-183.75,-61.20,-49.50,32.77,134.42,
06/01/2021,01:08:16.53,137.70,-969.24,275.39,-0.91,-1.28,0.18,-183.75,-61.20,-49.50,32.97,134.42,
06/01/2021,01:08:16.54,145.02,-959.96,279.30,-1.10,-2.01,-1.40,-184.95,-58.95,-48.75,32.73,134.42,
06/01/2021,01:08:16.55,135.74,-968.26,280.76,2.07,-1.59,-1.22,-184.95,-58.95,-48.75,32.58,134.42,
06/01/2021,01:08:16.56,137.21,-968.26,268.07,1.65,1.04,1.34,-186.00,-59.25,-48.00,32.58,134.42,
06/01/2021,01:08:16.56,148.44,-943.85,276.86,-1.77,-0.37,0.85,-186.00,-59.25,-48.00,32.92,134.42,
06/01/2021,01:08:16.56,127.93,-956.54,278.32,0.61,0.00,-0.18,-186.00,-59.25,-48.00,32.92,134.42,
06/01/2021,01:08:16.57,124.02,-965.33,271.00,-0.79,0.37,0.55,-186.00,-59.25,-48.00,32.92,134.42,
06/01/2021,01:08:16.58,127.93,-970.70,275.39,0.30,-0.91,1.10,-184.50,-60.00,-47.70,32.73,134.42,
06/01/2021,01:08:16.59,141.60,-960.94,287.11,0.98,0.49,1.34,-184.50,-60.90,-47.70,32.73,134.42,
06/01/2021,01:08:16.59,125.98,-977.54,275.88,-0.37,-2.20,1.52,-184.50,-60.90,-47.70,32.63,134.42,
06/01/2021,01:08:16.60,138.67,-970.70,285.16,-1.52,-2.20,0.85,-184.95,-60.90,-48.30,32.92,134.42,
06/01/2021,01:08:16.60,134.28,-960.45,280.27,0.00,-0.43,-0.18,-184.95,-60.90,-48.30,32.77,134.42,
06/01/2021,01:08:16.62,136.23,-976.07,274.90,-1.52,1.04,4.51,-183.75,-60.00,-48.00,32.77,134.42,
06/01/2021,01:08:16.67,132.81,-973.14,281.25,-1.34,-1.95,-0.55,-186.45,-61.20,-46.20,32.82,134.42,
06/01/2021,01:08:16.68,127.44,-964.36,282.23,0.61,-2.26,-1.04,-183.90,-61.05,-47.10,32.82,134.42,
06/01/2021,01:08:16.69,132.32,-966.31,288.57,-0.43,-1.95,-0.85,-183.00,-60.90,-48.75,32.97,134.42,
06/01/2021,01:08:16.69,143.55,-960.45,279.30,1.95,-0.98,4.21,-183.00,-60.90,-48.75,32.73,134.42,
06/01/2021,01:08:16.71,125.49,-955.08,278.81,0.55,-1.04,0.98,-185.40,-59.10,-47.85,32.73,134.42,
06/01/2021,01:08:16.71,126.46,-954.10,284.18,0.55,-1.77,0.55,-185.40,-59.10,-47.85,32.63,134.42,
06/01/2021,01:08:16.72,147.95,-955.08,277.83,-2.68,-3.48,0.98,-185.40,-59.10,-47.85,32.92,134.42,
06/01/2021,01:08:16.72,132.81,-957.52,271.00,-0.67,-1.28,0.73,-185.40,-59.10,-47.85,32.92,134.42,
06/01/2021,01:08:16.73,129.39,-958.01,278.32,-0.24,-1.65,2.26,-183.60,-59.10,-47.85,32.44,134.42,
06/01/2021,01:08:16.74,137.21,-959.96,264.16,-1.22,-2.26,-0.24,-185.85,-59.55,-47.10,32.82,134.42,
06/01/2021,01:08:16.74,138.67,-967.29,287.11,0.61,-0.18,0.79,-185.85,-59.55,-47.10,32.73,134.42,
06/01/2021,01:08:16.75,137.21,-960.94,278.32,-1.04,-5.12,2.13,-186.45,-59.70,-48.00,32.77,134.42,
06/01/2021,01:08:16.75,135.25,-961.91,279.79,-2.93,0.00,-0.30,-186.45,-59.70,-48.00,32.92,134.42,
06/01/2021,01:08:16.76,132.81,-962.40,275.88,-0.55,0.18,0.91,-184.35,-59.10,-48.60,32.77,134.42,
06/01/2021,01:08:16.76,139.65,-964.36,265.62,0.67,-1.40,1.52,-184.35,-59.10,-48.60,32.63,134.42,
06/01/2021,01:08:16.78,137.21,-959.47,281.25,-1.65,-1.59,1.95,-184.35,-60.30,-47.10,32.92,134.42,
06/01/2021,01:08:16.78,142.58,-954.59,271.48,0.61,0.30,1.71,-184.35,-60.30,-47.10,32.92,134.42,
06/01/2021,01:08:16.79,125.49,-952.64,272.46,-0.30,0.30,0.73,-184.35,-60.30,-47.10,33.06,134.42,
06/01/2021,01:08:16.79,134.77,-964.36,272.95,1.46,1.10,2.38,-184.35,-60.30,-47.10,32.92,134.42,
06/01/2021,01:08:16.80,122.56,-966.80,278.32,-1.22,-0.43,1.16,-184.20,-59.70,-48.30,32.73,134.42,
06/01/2021,01:08:16.81,134.28,-957.52,284.67,-0.98,-0.67,-1.40,-184.65,-60.30,-46.35,32.58,134.42,
06/01/2021,01:08:16.82,138.67,-962.40,268.07,0.73,-3.17,1.52,-184.65,-60.30,-46.35,32.63,134.42,
06/01/2021,01:08:16.82,138.18,-958.01,268.55,-1.46,-2.87,2.93,-186.90,-59.55,-47.10,32.97,134.42,
06/01/2021,01:08:16.82,132.81,-959.96,285.16,0.98,1.65,3.11,-186.90,-59.55,-47.10,32.77,134.42,
06/01/2021,01:08:16.83,133.30,-953.61,277.34,-0.67,-3.72,2.62,-183.30,-59.85,-47.85,32.73,134.42,
06/01/2021,01:08:16.84,130.37,-957.03,278.32,-2.32,2.93,0.67,-183.30,-59.85,-47.85,32.63,134.42,
06/01/2021,01:08:16.85,130.37,-953.12,282.23,-1.71,-0.30,1.04,-185.70,-59.70,-47.70,32.58,134.42,
06/01/2021,01:08:16.85,140.14,-968.75,271.00,-0.30,0.49,1.65,-185.70,-59.70,-47.70,32.73,134.42,
06/01/2021,01:08:16.86,132.32,-962.40,268.07,0.91,-1.46,0.61,-184.20,-59.25,-48.30,32.92,134.42,
06/01/2021,01:08:16.86,137.21,-959.96,272.46,-0.30,-0.24,0.85,-184.20,-59.25,-48.30,32.73,134.42,
06/01/2021,01:08:16.88,144.04,-971.68,262.70,1.34,-2.07,2.56,-185.25,-58.50,-47.70,32.73,134.42,
06/01/2021,01:08:16.89,139.65,-953.12,262.21,0.79,-1.22,3.29,-185.25,-58.50,-47.70,32.82,134.42,
06/01/2021,01:08:16.89,140.14,-960.94,273.93,0.12,-2.20,3.60,-185.25,-58.50,-47.70,32.82,134.42,
06/01/2021,01:08:16.89,136.23,-980.47,271.48,0.06,2.68,0.00,-185.25,-58.50,-47.70,32.63,134.42,
06/01/2021,01:08:16.90,128.91,-959.47,263.18,-1.52,-2.26,0.49,-184.20,-60.45,-47.70,32.73,134.42,
06/01/2021,01:08:16.91,123.05,-967.29,275.39,-0.12,-1.16,0.85,-184.65,-59.85,-47.40,32.73,134.42,
06/01/2021,01:08:16.92,136.23,-958.01,289.06,-0.61,-1.04,1.28,-185.85,-59.55,-47.10,32.73,134.42,
06/01/2021,01:08:16.92,139.16,-963.87,273.93,1.04,-1.83,1.40,-185.85,-59.55,-47.10,32.92,134.42,
06/01/2021,01:08:16.93,133.30,-967.77,284.67,-0.55,-2.32,0.06,-183.30,-59.85,-46.35,32.73,134.42,
06/01/2021,01:08:16.93,126.46,-956.54,288.09,-1.04,0.49,3.84,-183.30,-59.85,-46.35,32.73,134.42,
06/01/2021,01:08:16.94,133.79,-964.84,268.07,-2.20,-1.95,1.28,-183.30,-59.85,-46.35,32.92,134.42,
06/01/2021,01:08:16.95,125.98,-960.45,290.53,-0.12,1.71,1.22,-185.70,-60.45,-48.30,32.77,134.42,
06/01/2021,01:08:16.96,117.68,-975.10,276.37,-1.71,-0.49,2.01,-185.70,-60.45,-48.30,32.73,134.42,
06/01/2021,01:08:16.96,127.44,-962.89,269.53,0.55,-1.10,0.12,-185.70,-60.45,-48.30,32.58,134.42,
06/01/2021,01:08:16.96,131.84,-971.19,280.76,-0.37,-0.73,1.22,-185.70,-60.45,-48.30,32.77,134.42,
06/01/2021,01:08:16.97,123.05,-962.89,264.65,0.79,-0.30,2.93,-184.20,-60.00,-48.00,32.73,134.42,
06/01/2021,01:08:16.98,122.56,-962.40,266.60,0.79,0.49,1.04,-183.60,-61.05,-48.15,32.92,134.42,
06/01/2021,01:08:16.99,136.23,-970.21,263.18,0.55,-1.95,2.44,-185.25,-60.00,-46.50,32.73,134.42,
06/01/2021,01:08:16.99,127.93,-970.21,266.11,-0.61,-0.49,-0.24,-185.25,-60.00,-46.50,32.63,134.42,
06/01/2021,01:08:17.00,128.91,-940.43,276.37,-1.65,0.24,0.12,-185.10,-60.30,-48.15,32.73,134.42,
06/01/2021,01:08:17.00,122.07,-961.43,266.11,-0.18,0.55,-0.06,-185.10,-60.30,-48.15,32.92,134.42,
06/01/2021,01:08:17.02,135.25,-960.94,266.60,0.24,1.22,2.50,-187.35,-60.30,-46.35,32.92,134.42,
06/01/2021,01:08:17.02,120.61,-965.33,279.79,0.06,-1.22,2.32,-187.35,-60.30,-46.35,32.73,134.42,
06/01/2021,01:08:17.03,125.00,-971.19,273.44,0.06,-0.30,-2.13,-187.35,-60.30,-46.35,32.58,134.42,
06/01/2021,01:08:17.03,130.86,-966.31,278.81,0.61,1.22,-0.24,-183.75,-59.70,-47.25,33.06,134.42,
06/01/2021,01:08:17.04,130.86,-960.94,252.44,-1.65,-0.55,2.50,-183.75,-59.70,-47.25,32.92,134.42,
06/01/2021,01:08:17.05,126.95,-973.63,272.95,1.16,0.98,-1.89,-184.20,-60.45,-46.50,32.73,134.42,
06/01/2021,01:08:17.05,132.81,-965.33,279.30,1.46,-0.85,0.24,-184.20,-60.45,-46.50,32.92,134.42,
06/01/2021,01:08:17.06,129.39,-952.15,265.62,1.40,-1.40,-1.10,-184.20,-60.45,-46.50,32.73,134.42,
06/01/2021,01:08:17.06,132.32,-967.29,274.90,0.67,0.30,0.61,-184.20,-60.45,-46.50,32.73,134.42,
06/01/2021,01:08:17.07,135.25,-968.75,271.00,-0.79,1.95,2.44,-183.90,-59.55,-48.60,32.73,134.42,
06/01/2021,01:08:17.08,130.86,-962.89,286.62,0.06,-0.73,0.61,-185.25,-59.70,-48.30,32.92,134.42,
06/01/2021,01:08:17.09,129.88,-974.61,267.09,-0.49,-3.11,0.24,-185.10,-59.55,-46.80,32.73,134.42,
06/01/2021,01:08:17.09,132.81,-966.80,266.11,0.24,0.91,0.00,-185.10,-59.55,-46.80,32.58,134.42,
06/01/2021,01:08:17.10,124.51,-958.98,269.53,2.20,0.79,0.06,-184.35,-60.60,-48.90,32.77,134.42,
06/01/2021,01:08:17.10,119.14,-964.36,271.97,-0.12,0.06,1.28,-184.35,-60.60,-48.90,32.82,134.42,
06/01/2021,01:08:17.11,126.95,-957.52,270.02,0.12,-1.95,2.44,-184.35,-60.60,-48.90,32.73,134.42,
06/01/2021,01:08:17.12,132.81,-960.94,269.53,0.85,0.43,-0.49,-183.75,-58.95,-48.30,32.44,134.42,
06/01/2021,01:08:17.12,131.35,-964.36,278.32,0.91,-0.85,-0.18,-183.75,-58.95,-48.30,32.73,134.42,
06/01/2021,01:08:17.18,138.18,-966.31,268.07,0.91,-0.30,1.46,-184.95,-61.65,-46.20,32.77,134.42,
06/01/2021,01:08:17.19,128.42,-956.54,279.79,1.34,-2.56,2.07,-185.40,-59.55,-47.85,32.77,134.42,
06/01/2021,01:08:17.20,133.79,-954.10,276.37,1.34,-0.55,0.61,-185.40,-59.55,-47.85,32.77,134.42,
06/01/2021,01:08:17.21,121.58,-960.45,276.86,-0.24,2.80,-0.49,-183.30,-59.85,-47.10,32.92,134.42,
06/01/2021,01:08:17.22,131.35,-971.68,281.25,0.79,0.67,-3.84,-183.30,-59.85,-47.10,32.77,134.42,
06/01/2021,01:08:17.22,131.84,-958.01,273.93,-1.04,-2.44,-0.24,-185.40,-59.85,-47.10,32.73,134.42,
06/01/2021,01:08:17.22,137.21,-962.89,269.04,0.12,-0.73,1.40,-185.40,-59.85,-47.10,32.73,134.42,
06/01/2021,01:08:17.23,139.65,-964.84,272.46,1.10,0.49,0.67,-185.40,-59.85,-47.10,32.77,134.42,
06/01/2021,01:08:17.24,117.19,-968.26,268.55,1.52,0.67,2.74,-184.95,-60.00,-48.30,32.77,134.42,
06/01/2021,01:08:17.25,128.91,-962.89,279.30,-0.24,0.37,2.44,-184.65,-59.55,-47.10,32.82,134.42,
06/01/2021,01:08:17.25,124.02,-957.03,277.34,0.49,0.98,1.28,-184.65,-59.55,-47.10,32.73,134.42,
06/01/2021,01:08:17.26,124.51,-962.89,279.79,0.24,0.37,1.22,-184.20,-59.25,-49.50,32.92,134.42,
06/01/2021,01:08:17.26,126.95,-960.45,277.34,-1.22,-0.18,0.61,-184.20,-59.25,-49.50,32.97,134.42,
06/01/2021,01:08:17.28,133.30,-961.43,277.83,0.12,3.05,1.34,-184.65,-59.55,-48.60,32.82,134.42,
06/01/2021,01:08:17.28,118.65,-961.43,271.97,0.85,0.73,1.71,-184.65,-59.55,-48.60,32.73,134.42,
06/01/2021,01:08:17.29,129.88,-979.00,290.04,1.59,0.37,2.13,-184.65,-59.55,-48.60,32.77,134.42,
06/01/2021,01:08:17.29,125.98,-958.01,278.32,-0.98,0.12,-0.37,-185.25,-58.95,-47.70,32.82,134.42,
06/01/2021,01:08:17.30,129.39,-965.33,280.27,2.07,-0.30,0.12,-185.25,-58.95,-47.70,32.77,134.42,
06/01/2021,01:08:17.30,123.05,-952.15,270.02,-1.52,-0.18,1.16,-185.25,-58.95,-47.70,32.73,134.42,
06/01/2021,01:08:17.32,132.32,-967.29,275.88,-0.49,3.66,0.00,-184.20,-59.25,-48.00,32.92,134.42,
06/01/2021,01:08:17.32,139.16,-958.01,271.48,1.22,-0.91,-1.46,-185.70,-59.25,-48.00,32.73,134.42,
06/01/2021,01:08:17.32,129.39,-968.26,279.79,0.61,2.87,2.26,-185.70,-59.25,-48.00,32.63,134.42,
06/01/2021,01:08:17.33,126.95,-958.01,281.74,-0.24,-0.85,0.49,-186.00,-60.45,-49.05,32.97,134.42,
06/01/2021,01:08:17.33,125.98,-956.05,269.53,-1.16,3.29,0.79,-186.00,-60.45,-49.05,32.82,134.42,
06/01/2021,01:08:17.35,127.93,-964.36,268.07,2.26,-0.98,0.79,-184.95,-58.95,-48.30,33.06,134.42,
06/01/2021,01:08:17.35,133.79,-960.94,279.30,-0.85,-0.61,1.40,-184.95,-58.95,-48.30,32.77,134.42,
06/01/2021,01:08:17.36,131.84,-972.17,283.20,1.83,1.46,0.00,-184.95,-58.95,-48.30,32.92,134.42,
06/01/2021,01:08:17.36,139.65,-962.89,276.86,2.80,-0.49,3.35,-184.65,-60.30,-48.15,32.97,134.42,
06/01/2021,01:08:17.37,125.00,-964.84,274.41,1.40,0.37,0.85,-184.65,-60.30,-48.15,32.73,134.42,
06/01/2021,01:08:17.38,132.32,-966.80,278.81,0.30,2.01,0.55,-186.15,-59.55,-46.35,32.77,134.42,
06/01/2021,01:08:17.38,117.68,-969.24,276.37,1.10,-0.79,-0.18,-186.15,-59.55,-46.35,32.77,134.42,
06/01/2021,01:08:17.39,118.16,-965.33,266.60,1.59,0.67,2.80,-184.95,-60.45,-48.00,32.73,134.42,
06/01/2021,01:08:17.39,130.86,-958.98,285.16,1.77,2.38,2.26,-184.95,-60.45,-48.00,32.92,134.42,
06/01/2021,01:08:17.40,125.49,-968.26,290.04,-1.95,-2.74,1.04,-184.95,-60.45,-48.00,32.73,134.42,
06/01/2021,01:08:17.41,127.93,-964.84,278.32,1.22,1.65,3.11,-185.70,-60.45,-46.50,32.77,134.42,
06/01/2021,01:08:17.42,124.51,-953.61,267.09,-0.18,1.28,0.06,-183.30,-59.55,-47.10,32.82,134.42,
06/01/2021,01:08:17.42,135.25,-974.12,272.95,2.93,0.98,0.43,-183.30,-59.55,-47.10,32.73,134.42,
06/01/2021,01:08:17.43,125.00,-976.07,276.37,0.06,2.13,1.22,-183.30,-59.55,-47.10,32.63,134.42,
06/01/2021,01:08:17.43,133.30,-960.94,268.07,-0.06,0.24,2.80,-183.00,-60.90,-49.05,32.77,134.42,
06/01/2021,01:08:17.44,133.79,-963.87,278.81,3.35,-1.46,0.98,-183.00,-60.90,-49.05,32.92,134.42,
06/01/2021,01:08:17.45,128.91,-958.01,280.76,0.85,0.91,2.56,-183.45,-59.25,-48.00,32.82,134.42,
06/01/2021,01:08:17.46,132.32,-967.77,280.76,-0.24,-1.22,2.13,-183.45,-59.25,-48.00,32.97,134.42,
06/01/2021,01:08:17.46,122.56,-962.40,278.32,-0.24,1.71,0.67,-184.65,-61.05,-47.10,32.73,134.42,
06/01/2021,01:08:17.46,136.23,-966.80,275.39,0.06,2.01,1.28,-184.65,-61.05,-47.10,32.82,134.42,
06/01/2021,01:08:17.47,124.51,-963.38,282.71,1.52,0.37,1.10,-184.20,-60.00,-48.30,32.97,134.42,
06/01/2021,01:08:17.48,130.37,-962.89,278.32,0.18,1.65,1.22,-185.85,-59.55,-47.85,32.77,134.42,
06/01/2021,01:08:17.49,138.67,-973.14,284.18,-0.18,2.07,5.06,-184.20,-58.95,-48.00,32.73,134.42,
06/01/2021,01:08:17.49,136.72,-958.98,267.58,0.43,-0.24,0.00,-184.20,-58.95,-48.00,32.92,134.42,
06/01/2021,01:08:17.50,120.61,-961.91,275.88,1.28,-0.79,2.38,-184.20,-58.95,-48.00,32.77,134.42,
06/01/2021,01:08:17.50,123.54,-969.73,286.13,1.77,-0.49,0.67,-182.55,-59.55,-48.90,32.77,134.42,
06/01/2021,01:08:17.52,127.93,-958.98,279.30,3.29,-1.95,2.93,-183.00,-61.20,-48.30,32.73,134.42,
06/01/2021,01:08:17.52,123.05,-970.21,282.23,0.49,-2.32,3.60,-183.00,-61.20,-48.30,32.73,134.42,
06/01/2021,01:08:17.53,123.54,-966.31,276.37,-0.24,-1.22,-0.18,-183.00,-61.20,-48.30,32.77,134.42,
06/01/2021,01:08:17.53,136.23,-952.15,283.20,0.24,0.06,2.99,-185.25,-57.75,-47.70,32.92,134.42,
06/01/2021,01:08:17.53,127.93,-958.98,273.93,1.65,-1.59,2.62,-185.25,-57.75,-47.70,32.73,134.42,
06/01/2021,01:08:17.55,117.19,-964.84,287.60,2.56,-4.15,1.10,-185.40,-60.60,-46.80,32.53,134.42,
06/01/2021,01:08:17.55,124.02,-976.56,278.32,1.46,0.06,2.13,-185.40,-60.60,-46.80,32.63,134.42,
06/01/2021,01:08:17.56,118.16,-971.68,273.44,2.74,-2.50,1.77,-184.65,-59.55,-47.85,32.77,134.42,
06/01/2021,01:08:17.56,132.32,-963.38,282.71,1.10,-2.62,2.07,-184.65,-59.55,-47.85,32.82,134.42,
06/01/2021,01:08:17.57,110.35,-957.03,282.71,2.93,-2.01,0.91,-184.65,-59.55,-47.85,32.73,134.42,
06/01/2021,01:08:17.58,125.00,-971.68,277.34,2.93,-2.20,3.05,-183.75,-59.70,-47.25,32.73,134.42,
06/01/2021,01:08:17.59,137.21,-959.96,274.41,-0.85,-1.28,0.67,-183.75,-59.70,-47.25,32.73,134.42,
06/01/2021,01:08:17.59,121.09,-965.33,282.23,0.91,-1.59,2.74,-184.50,-59.70,-48.75,32.92,134.42,
06/01/2021,01:08:17.60,117.19,-958.98,273.44,1.04,-3.54,1.34,-184.50,-59.70,-48.75,32.73,134.42,
06/01/2021,01:08:17.60,129.88,-960.45,285.64,1.95,1.22,1.46,-184.95,-60.00,-48.30,32.63,134.42,
06/01/2021,01:08:17.61,120.61,-948.73,284.18,-0.61,0.12,2.99,-184.95,-60.00,-48.30,32.73,134.42,
06/01/2021,01:08:17.62,126.95,-958.01,286.13,-0.67,-0.85,0.24,-184.20,-60.00,-47.70,32.82,134.42,
06/01/2021,01:08:17.62,127.93,-958.98,284.67,2.56,-1.34,3.29,-184.20,-60.00,-47.70,32.77,134.42,
06/01/2021,01:08:17.63,116.21,-969.24,287.60,1.83,-1.65,4.70,-182.25,-59.70,-48.30,32.92,134.42,
06/01/2021,01:08:17.63,127.44,-958.01,281.74,-0.67,-1.52,-0.37,-182.25,-59.70,-48.30,32.44,134.42,
06/01/2021,01:08:17.69,125.00,-955.57,286.13,2.13,-2.38,2.50,-185.25,-60.90,-46.20,33.06,134.42,
06/01/2021,01:08:17.71,126.95,-960.45,276.37,1.59,-3.90,2.62,-185.40,-60.60,-46.80,32.44,134.42,
06/01/2021,01:08:17.72,110.35,-969.24,276.86,-0.61,-2.07,0.91,-185.40,-60.60,-46.80,32.73,134.42,
06/01/2021,01:08:17.72,123.54,-964.84,292.48,2.50,-2.44,1.52,-183.75,-58.95,-48.00,32.73,134.42,
06/01/2021,01:08:17.72,120.61,-975.59,282.71,-0.24,-2.07,0.30,-183.75,-58.95,-48.00,32.77,134.42,
06/01/2021,01:08:17.73,123.05,-968.75,277.83,-0.67,-3.96,0.67,-184.95,-59.70,-48.75,32.63,134.42,
06/01/2021,01:08:17.74,138.18,-956.54,272.46,2.01,-1.28,1.40,-184.95,-59.70,-48.75,32.73,134.42,
06/01/2021,01:08:17.75,118.65,-964.36,279.30,1.22,-1.65,0.55,-184.95,-59.70,-48.75,32.82,134.42,
06/01/2021,01:08:17.75,124.02,-969.24,279.79,0.49,-2.87,1.52,-184.95,-62.40,-48.30,32.73,134.42,
06/01/2021,01:08:17.76,115.72,-950.68,281.74,2.68,-2.20,-0.73,-184.95,-62.40,-48.30,32.97,134.42,
06/01/2021,01:08:17.76,122.07,-970.21,272.95,0.98,-1.34,2.38,-184.35,-61.05,-48.60,32.58,134.42,
06/01/2021,01:08:17.78,123.05,-970.21,276.37,0.73,-0.98,0.00,-184.95,-60.45,-47.25,32.58,134.42,
06/01/2021,01:08:17.78,123.05,-963.87,283.69,0.00,0.79,-1.34,-186.75,-61.20,-48.00,32.53,134.42,
06/01/2021,01:08:17.79,121.58,-963.38,285.16,-0.55,-0.12,-1.04,-186.75,-61.20,-48.00,32.73,134.42,
06/01/2021,01:08:17.79,134.28,-958.98,286.62,0.24,1.59,0.98,-186.75,-61.20,-48.00,32.82,134.42,
06/01/2021,01:08:17.79,118.65,-958.01,272.95,1.83,0.24,-2.01,-186.75,-61.20,-48.00,32.44,134.42,
06/01/2021,01:08:17.81,124.02,-950.20,286.62,1.40,0.79,1.34,-184.35,-61.35,-47.85,32.63,134.42,
06/01/2021,01:08:17.81,127.44,-962.40,274.90,-0.85,-0.85,-2.38,-184.35,-61.35,-47.85,32.44,134.42,
06/01/2021,01:08:17.82,118.65,-949.22,277.83,0.98,-1.46,0.18,-184.35,-61.35,-47.85,32.77,134.42,
06/01/2021,01:08:17.82,127.93,-969.24,297.85,0.91,-1.71,-0.85,-184.20,-59.70,-46.95,32.73,134.42,
06/01/2021,01:08:17.83,115.23,-969.73,280.27,0.00,0.91,-2.13,-184.20,-59.70,-46.95,32.58,134.42,
06/01/2021,01:08:17.83,119.63,-954.59,272.95,1.28,-0.85,0.30,-184.20,-60.45,-48.75,32.77,134.42,
06/01/2021,01:08:17.85,119.63,-954.10,280.76,-1.04,-0.06,-1.16,-184.20,-60.45,-48.75,32.92,134.42,
06/01/2021,01:08:17.85,123.05,-960.45,283.69,0.37,0.55,0.73,-185.10,-61.35,-46.05,32.73,134.42,
06/01/2021,01:08:17.86,121.09,-964.36,284.67,0.37,-3.66,0.18,-185.10,-61.35,-46.05,32.82,134.42,
06/01/2021,01:08:17.86,113.77,-960.94,284.67,1.34,-1.71,-0.85,-185.10,-61.35,-46.05,32.58,134.42,
06/01/2021,01:08:17.87,113.28,-965.33,276.86,0.79,-0.24,-0.55,-185.10,-61.35,-46.05,32.77,134.42,
06/01/2021,01:08:17.88,129.39,-974.61,282.71,0.37,-0.61,0.85,-185.85,-62.25,-46.05,32.92,134.42,
06/01/2021,01:08:17.89,124.02,-966.31,271.00,-1.95,-3.48,-0.91,-185.85,-62.25,-46.05,32.77,134.42,
06/01/2021,01:08:17.89,114.75,-967.77,285.16,1.89,-0.49,-0.12,-183.75,-59.25,-48.00,32.44,134.42,
06/01/2021,01:08:17.89,119.14,-957.03,271.97,1.10,1.34,-0.98,-183.75,-59.25,-48.00,32.92,134.42,
06/01/2021,01:08:17.90,124.02,-970.21,278.81,1.83,1.28,-0.18,-183.75,-59.25,-48.00,32.77,134.42,
06/01/2021,01:08:17.92,118.65,-966.80,265.62,0.06,0.00,-0.37,-183.30,-59.55,-48.60,32.77,134.42,
06/01/2021,01:08:17.92,132.32,-968.75,273.93,0.37,-1.52,-0.73,-186.75,-60.00,-47.70,32.63,134.42,
06/01/2021,01:08:17.92,128.91,-949.71,282.71,3.29,0.73,-1.22,-186.75,-60.00,-47.70,32.97,134.42,
06/01/2021,01:08:17.93,132.32,-953.61,282.23,0.00,0.98,-2.32,-184.50,-60.00,-48.30,32.58,134.42,
06/01/2021,01:08:17.93,123.54,-945.31,278.81,1.59,0.37,-2.26,-184.50,-60.00,-48.30,32.92,134.42,
06/01/2021,01:08:17.95,123.54,-961.43,278.32,0.91,0.00,-1.04,-186.00,-59.70,-48.30,32.73,134.42,
06/01/2021,01:08:17.95,134.28,-954.10,275.39,0.91,-0.49,1.52,-183.75,-61.65,-46.20,32.82,134.42,
06/01/2021,01:08:17.96,138.67,-958.50,290.04,1.46,0.73,-2.20,-183.75,-61.65,-46.20,32.73,134.42,
06/01/2021,01:08:17.96,125.49,-961.91,281.74,1.40,2.13,-1.65,-183.75,-61.65,-46.20,33.06,134.42,
06/01/2021,01:08:17.97,123.05,-963.87,277.34,0.98,-1.40,-4.02,-183.75,-61.65,-46.20,32.77,134.42,
06/01/2021,01:08:17.97,129.88,-967.29,270.02,0.98,1.59,-2.32,-185.40,-61.35,-47.85,32.73,134.42,
06/01/2021,01:08:17.99,123.54,-951.17,295.41,-1.59,1.89,-1.04,-185.85,-61.35,-48.15,32.73,134.42,
06/01/2021,01:08:17.99,120.61,-976.07,274.90,0.98,1.28,-1.34,-184.50,-58.95,-48.30,32.63,134.42,
06/01/2021,01:08:17.99,125.98,-965.33,284.18,0.67,0.98,-1.46,-184.50,-58.95,-48.30,32.77,134.42,
06/01/2021,01:08:18.00,123.54,-957.52,283.20,-1.95,0.49,0.79,-183.90,-60.60,-48.90,32.73,134.42,
06/01/2021,01:08:18.00,126.46,-966.31,281.25,2.50,-0.79,-1.77,-183.90,-60.60,-48.90,32.73,134.42,
06/01/2021,01:08:18.02,126.95,-961.43,276.37,0.73,0.24,-1.95,-183.90,-60.60,-48.90,32.73,134.42,
06/01/2021,01:08:18.02,134.28,-958.98,276.37,1.65,0.43,-2.74,-184.35,-60.60,-48.60,32.92,134.42,
06/01/2021,01:08:18.03,120.12,-959.96,285.64,0.06,0.06,-0.85,-184.35,-60.60,-48.60,32.77,134.42,
06/01/2021,01:08:18.03,137.21,-966.31,296.88,-0.37,0.30,-4.39,-184.35,-60.60,-48.60,32.77,134.42,
06/01/2021,01:08:18.04,128.91,-957.52,280.27,0.00,1.22,-3.41,-184.35,-60.60,-48.60,32.58,134.42,
06/01/2021,01:08:18.05,122.56,-964.36,280.27,0.98,0.12,-0.43,-183.30,-59.85,-46.80,32.82,134.42,
06/01/2021,01:08:18.06,131.35,-959.96,286.13,-1.04,2.13,-1.59,-183.30,-59.85,-46.80,32.82,134.42,
06/01/2021,01:08:18.06,129.39,-958.01,275.88,-1.04,-1.65,-1.83,-183.90,-60.30,-48.60,32.92,134.42,
06/01/2021,01:08:18.07,123.05,-964.36,271.97,-2.44,-1.65,-1.77,-183.90,-60.30,-48.60,32.82,134.42,
06/01/2021,01:08:18.07,128.91,-971.68,286.13,-0.73,1.59,-4.39,-185.10,-59.85,-47.85,32.58,134.42,
06/01/2021,01:08:18.10,139.16,-958.98,275.39,-0.37,2.01,-2.32,-186.15,-61.05,-46.80,32.77,134.42,
06/01/2021,01:08:18.10,128.91,-972.17,297.36,-1.59,-0.06,-2.38,-184.50,-59.25,-47.25,32.82,134.42,
06/01/2021,01:08:18.10,125.49,-972.66,284.67,-0.67,-0.30,-1.71,-184.50,-59.25,-47.25,32.97,134.42,
06/01/2021,01:08:18.11,143.55,-981.45,284.67,0.00,2.74,-3.05,-184.50,-59.25,-47.25,32.77,134.42,
06/01/2021,01:08:18.11,138.67,-958.50,281.74,0.18,-0.49,-2.38,-183.45,-58.95,-48.00,32.82,134.42,
06/01/2021,01:08:18.13,140.14,-975.10,284.67,-0.37,1.10,-4.88,-183.75,-60.90,-46.95,32.63,134.42,
06/01/2021,01:08:18.13,134.77,-963.38,272.46,-0.79,-0.91,-2.62,-183.75,-60.90,-46.95,32.58,134.42,
06/01/2021,01:08:18.14,138.18,-964.84,267.09,-1.28,2.13,-3.48,-183.75,-60.90,-46.95,32.77,134.42,
06/01/2021,01:08:18.14,126.95,-960.94,280.27,1.28,0.79,-1.77,-182.70,-59.25,-48.00,32.63,134.42,
06/01/2021,01:08:18.20,140.14,-961.43,289.55,-0.12,2.20,-1.04,-184.95,-58.50,-47.25,32.73,134.42,
06/01/2021,01:08:18.22,144.53,-955.57,285.16,-0.24,0.06,-0.49,-185.10,-60.60,-49.35,32.73,134.42,
06/01/2021,01:08:18.22,137.70,-958.50,282.23,2.38,-1.95,0.98,-185.10,-60.60,-49.35,32.82,134.42,
06/01/2021,01:08:18.23,137.21,-967.29,291.02,-1.95,-1.04,-3.54,-185.10,-60.60,-49.35,32.58,134.42,
06/01/2021,01:08:18.23,141.11,-953.61,271.97,0.24,-1.34,-2.99,-183.90,-60.60,-48.60,32.77,134.42,
06/01/2021,01:08:18.24,139.16,-954.59,289.55,2.13,-1.89,-0.30,-183.90,-60.60,-48.60,32.73,134.42,
06/01/2021,01:08:18.24,136.72,-959.96,290.53,-1.10,-0.98,-1.59,-183.75,-59.70,-48.00,32.82,134.42,
06/01/2021,01:08:18.26,136.72,-962.89,283.69,-1.04,-2.50,-0.30,-183.75,-59.70,-48.00,32.92,134.42,
06/01/2021,01:08:18.26,146.48,-967.29,277.34,-0.30,1.04,-1.28,-183.90,-60.60,-47.10,32.92,134.42,
06/01/2021,01:08:18.27,133.30,-967.29,281.25,-0.49,-1.16,-3.84,-183.90,-60.60,-47.10,33.06,134.42,
06/01/2021,01:08:18.27,138.18,-961.91,282.23,1.10,-2.01,-1.89,-184.95,-60.00,-47.70,32.82,134.42,
06/01/2021,01:08:18.28,125.98,-961.43,288.09,-0.67,-2.13,-3.84,-184.95,-60.00,-47.70,32.39,134.42,
06/01/2021,01:08:18.29,141.60,-959.47,287.60,-0.30,-0.61,-5.06,-185.40,-59.55,-47.40,32.92,134.42,
06/01/2021,01:08:18.30,143.07,-959.47,276.37,0.00,-1.52,-2.26,-185.40,-59.55,-47.40,32.82,134.42,
06/01/2021,01:08:18.30,142.09,-965.82,279.30,-0.85,-1.22,-2.62,-185.40,-59.55,-47.40,32.73,134.42,
06/01/2021,01:08:18.30,150.88,-962.89,271.97,1.71,2.62,0.00,-185.40,-59.55,-47.40,32.97,134.42,
06/01/2021,01:08:18.31,144.04,-962.89,290.04,0.00,0.85,-2.20,-185.40,-59.55,-47.40,32.82,134.42,
06/01/2021,01:08:18.32,132.81,-951.66,273.93,-1.59,-4.21,-1.40,-184.50,-60.90,-46.95,32.82,134.42,
06/01/2021,01:08:18.33,138.18,-954.10,275.88,-1.77,-0.37,-4.63,-184.50,-60.90,-46.95,32.82,134.42,
06/01/2021,01:08:18.33,144.04,-958.50,289.06,-0.67,0.24,-2.13,-183.90,-59.10,-47.85,32.82,134.42,
06/01/2021,01:08:18.34,125.98,-959.47,282.23,-0.67,-0.18,-3.11,-183.90,-59.10,-47.85,32.44,134.42,
06/01/2021,01:08:18.34,128.91,-970.70,275.88,0.55,1.77,-2.50,-184.65,-59.55,-47.10,33.11,134.42,
06/01/2021,01:08:18.36,146.00,-963.38,282.71,-0.67,2.99,-2.80,-184.65,-59.55,-47.10,32.73,134.42,
06/01/2021,01:08:18.36,144.53,-963.38,288.57,-0.55,2.32,-3.35,-185.85,-59.85,-46.05,32.77,134.42,
06/01/2021,01:08:18.37,139.65,-957.03,276.37,0.12,1.59,-2.99,-185.85,-59.85,-46.05,32.97,134.42,
06/01/2021,01:08:18.37,145.02,-950.20,280.76,-0.55,3.54,-3.11,-185.85,-59.85,-46.05,32.63,134.42,
06/01/2021,01:08:18.37,137.21,-963.38,273.93,-2.99,1.52,-3.48,-185.85,-59.85,-46.05,32.63,134.42,
06/01/2021,01:08:18.39,147.95,-962.40,281.74,-1.77,1.46,-4.94,-185.25,-58.50,-49.50,32.58,134.42,
06/01/2021,01:08:18.39,139.65,-959.96,286.13,-1.46,1.77,-4.09,-184.95,-60.45,-46.95,32.58,134.42,
06/01/2021,01:08:18.40,156.25,-949.71,285.64,-1.04,0.61,-3.48,-184.95,-60.45,-46.95,32.92,134.42,
06/01/2021,01:08:18.40,146.48,-970.70,287.60,-1.22,2.20,-1.95,-185.40,-59.85,-47.85,32.77,134.42,
06/01/2021,01:08:18.41,141.11,-960.94,277.83,-0.55,2.44,-3.84,-185.40,-59.85,-47.85,32.97,134.42,
06/01/2021,01:08:18.42,154.30,-965.33,279.30,-0.55,1.22,-2.01,-184.95,-59.70,-48.75,32.58,134.42,
06/01/2021,01:08:18.43,138.67,-969.24,269.04,0.30,2.13,-2.26,-184.95,-59.70,-48.75,32.63,134.42,
06/01/2021,01:08:18.43,138.67,-965.82,282.23,-1.28,1.16,-5.55,-184.65,-60.60,-47.10,32.73,134.42,
06/01/2021,01:08:18.44,145.51,-959.47,282.23,0.55,2.26,-2.32,-184.65,-60.60,-47.10,32.82,134.42,
06/01/2021,01:08:18.44,125.49,-950.68,279.30,-0.85,0.12,-5.00,-184.65,-60.60,-47.10,32.44,134.42,
06/01/2021,01:08:18.45,159.67,-957.52,272.46,-1.40,0.73,-1.95,-184.95,-59.70,-48.00,32.77,134.42,
06/01/2021,01:08:18.46,146.48,-962.40,267.09,0.00,2.56,-1.40,-183.45,-59.25,-47.25,32.73,134.42,
06/01/2021,01:08:18.46,154.79,-959.47,273.93,-1.10,1.46,-3.29,-185.10,-60.30,-46.35,32.58,134.42,
06/01/2021,01:08:18.47,146.48,-955.08,280.27,-1.65,1.10,-1.71,-185.10,-60.30,-46.35,32.97,134.42,
06/01/2021,01:08:18.47,144.04,-960.45,280.27,-1.04,1.16,-0.37,-185.10,-60.30,-46.35,32.77,134.42,
06/01/2021,01:08:18.48,146.48,-951.17,280.27,-1.89,3.05,-3.41,-185.10,-60.30,-46.35,32.73,134.42,
06/01/2021,01:08:18.49,141.60,-966.31,288.09,-0.67,3.54,-2.01,-185.10,-58.35,-47.85,32.58,134.42,
