rtcDate,rtcTime,aX,aY,aZ,gX,gY,gZ,mX,mY,mZ,imu_degC,output_Hz,
06/01/2021,01:10:09.71,-401.37,-1511.72,-562.01,16.04,58.11,-15.24,-11.55,-39.00,12.60,35.46,118.26,
06/01/2021,01:10:09.75,-401.37,-951.17,-549.80,-14.21,-51.10,34.02,-9.90,-36.00,11.25,35.79,118.25,
06/01/2021,01:10:09.77,-523.44,-948.73,-439.45,-2.99,9.82,30.67,-9.30,-38.55,11.40,35.60,118.25,
06/01/2021,01:10:09.77,-540.53,-989.26,-434.08,-1.89,30.85,33.54,-9.30,-38.55,11.40,35.70,118.25,
06/01/2021,01:10:09.78,-543.95,-1026.37,-405.27,-0.24,43.72,37.87,-9.30,-38.55,11.40,35.55,118.25,
06/01/2021,01:10:09.79,-544.43,-1039.06,-291.02,3.23,82.50,35.85,-9.75,-36.60,11.40,35.55,118.25,
06/01/2021,01:10:09.80,-533.20,-1000.49,-229.00,2.01,100.12,34.21,-9.60,-36.00,10.20,35.22,118.25,
06/01/2021,01:10:09.81,-500.00,-975.59,-201.66,3.29,117.87,28.48,-9.60,-36.00,10.20,35.46,118.25,
06/01/2021,01:10:09.81,-488.28,-951.66,-148.93,2.20,132.56,27.74,-9.90,-36.90,11.25,35.17,118.25,
06/01/2021,01:10:09.82,-468.26,-940.92,-127.93,1.59,145.06,22.01,-9.90,-36.90,11.25,35.75,118.26,
06/01/2021,01:10:09.83,-436.04,-921.88,-61.04,-3.84,152.44,21.71,-9.60,-36.00,13.50,35.55,118.25,
06/01/2021,01:10:09.84,-406.25,-916.50,-38.09,-5.91,149.09,26.22,-9.00,-36.60,12.60,35.55,118.25,
06/01/2021,01:10:09.85,-384.77,-924.80,-32.23,-7.38,144.15,28.23,-9.00,-36.60,12.60,35.55,118.25,
06/01/2021,01:10:09.85,-367.68,-921.88,-16.60,-9.57,134.51,29.09,-12.00,-37.80,11.40,35.55,118.25,
06/01/2021,01:10:09.86,-373.54,-943.85,-22.95,-12.62,120.55,27.20,-12.00,-37.80,11.40,35.60,118.26,
06/01/2021,01:10:09.87,-376.95,-936.52,-61.52,-21.22,99.88,23.35,-10.35,-36.45,11.25,35.55,118.25,
06/01/2021,01:10:09.88,-372.07,-931.64,-64.94,-21.89,94.94,19.82,-10.35,-36.45,11.25,35.70,118.25,
06/01/2021,01:10:09.89,-377.93,-930.66,-67.87,-24.88,92.20,18.05,-10.35,-36.45,11.25,35.70,118.26,
06/01/2021,01:10:09.89,-373.54,-906.74,-81.05,-26.95,87.50,17.01,-13.65,-35.25,10.95,35.89,118.26,
06/01/2021,01:10:09.90,-380.37,-908.20,-77.64,-30.37,86.34,13.60,-13.65,-35.25,10.95,35.55,118.26,
06/01/2021,01:10:09.91,-375.00,-892.09,-73.73,-31.71,83.35,6.65,-12.15,-34.20,12.30,35.55,118.25,
06/01/2021,01:10:09.92,-383.30,-888.18,-56.64,-33.35,80.61,10.43,-12.15,-34.20,12.30,35.75,118.26,
06/01/2021,01:10:09.93,-368.16,-886.23,-52.25,-34.82,75.91,7.26,-12.30,-36.60,11.10,35.75,118.26,
06/01/2021,01:10:09.93,-380.86,-880.37,-37.60,-36.77,74.15,11.28,-11.85,-35.25,11.70,35.55,118.26,
06/01/2021,01:10:09.94,-367.68,-868.65,-23.93,-37.93,69.02,6.59,-11.85,-35.25,11.70,35.70,118.26,
06/01/2021,01:10:09.94,-378.91,-864.75,-23.44,-35.67,60.61,12.68,-13.05,-33.60,11.10,35.46,118.26,
06/01/2021,01:10:09.96,-381.35,-851.56,-34.18,-38.90,50.30,13.60,-13.05,-33.60,11.10,35.55,118.26,
06/01/2021,01:10:09.97,-382.32,-847.17,-13.67,-39.21,46.52,17.01,-12.75,-36.30,12.15,35.55,118.26,
06/01/2021,01:10:09.97,-382.32,-845.70,3.91,-40.06,44.82,20.79,-12.75,-36.30,12.15,35.55,118.26,
06/01/2021,01:10:09.98,-388.67,-850.59,0.00,-36.04,41.59,22.93,-12.75,-36.30,12.15,35.55,118.26,
06/01/2021,01:10:09.98,-395.02,-844.24,3.42,-37.32,37.07,27.44,-14.40,-33.00,11.70,35.55,118.26,
06/01/2021,01:10:10.00,-365.72,-856.93,29.79,-35.67,28.96,37.74,-12.15,-34.20,8.40,35.60,118.26,
06/01/2021,01:10:10.01,-375.00,-871.09,29.30,-36.34,24.82,37.32,-12.90,-33.75,12.30,35.55,118.26,
06/01/2021,01:10:10.01,-368.16,-875.00,40.53,-35.67,18.35,44.94,-12.30,-33.15,11.10,35.75,118.26,
06/01/2021,01:10:10.02,-376.95,-878.42,42.48,-38.41,16.34,43.23,-12.30,-33.15,11.10,35.60,118.26,
06/01/2021,01:10:10.02,-375.98,-885.25,38.09,-33.05,13.29,50.91,-13.50,-33.60,10.65,35.60,118.26,
06/01/2021,01:10:10.04,-349.12,-880.37,72.27,-32.68,4.70,54.88,-12.45,-30.75,9.00,35.46,118.26,
06/01/2021,01:10:10.05,-349.12,-885.25,90.82,-32.44,1.16,59.88,-12.90,-33.75,11.25,35.55,118.26,
06/01/2021,01:10:10.05,-351.56,-888.18,73.24,-30.61,-2.87,59.88,-12.45,-32.55,10.95,35.70,118.26,
06/01/2021,01:10:10.06,-346.68,-876.95,92.77,-30.18,-5.67,65.06,-12.45,-32.55,10.95,35.55,118.26,
06/01/2021,01:10:10.06,-356.45,-882.81,76.17,-28.48,-11.16,67.38,-12.45,-32.55,10.95,35.55,118.26,
06/01/2021,01:10:10.08,-337.89,-891.60,102.05,-24.33,-16.89,70.06,-9.15,-31.50,7.65,35.60,118.26,
06/01/2021,01:10:10.09,-346.19,-904.79,91.80,-20.98,-18.41,71.34,-9.15,-31.50,7.65,35.46,118.26,
06/01/2021,01:10:10.09,-345.70,-906.74,87.89,-20.24,-21.65,70.24,-10.65,-31.05,8.70,35.22,118.26,
06/01/2021,01:10:10.10,-342.29,-897.46,104.98,-18.11,-22.56,71.59,-10.65,-31.05,8.70,35.46,118.26,
06/01/2021,01:10:10.10,-346.68,-915.04,85.94,-17.01,-23.60,70.30,-9.75,-30.45,8.10,35.75,118.26,
06/01/2021,01:10:10.12,-336.91,-899.41,90.33,-10.06,-24.82,69.63,-7.20,-29.40,6.30,35.36,118.26,
06/01/2021,01:10:10.13,-336.43,-902.83,80.08,-7.93,-25.00,69.33,-9.90,-31.05,7.95,35.46,118.26,
06/01/2021,01:10:10.13,-346.68,-919.92,92.77,-6.04,-25.61,65.49,-7.95,-30.45,7.35,35.55,118.26,
06/01/2021,01:10:10.14,-338.38,-900.88,88.38,-1.83,-24.27,66.83,-7.95,-30.45,7.35,35.79,118.26,
06/01/2021,01:10:10.14,-342.29,-916.50,79.59,0.18,-25.12,62.74,-8.25,-29.40,7.05,35.46,118.26,
06/01/2021,01:10:10.15,-334.96,-904.79,79.10,2.87,-25.79,59.88,-8.25,-29.40,7.05,35.60,118.26,
06/01/2021,01:10:10.17,-320.31,-928.71,85.94,9.45,-23.29,52.99,-6.90,-29.85,5.85,35.70,118.26,
06/01/2021,01:10:10.17,-331.05,-934.08,94.24,13.54,-25.79,51.77,-6.90,-29.85,5.85,35.70,118.26,
06/01/2021,01:10:10.18,-338.38,-937.01,78.12,15.79,-23.29,45.00,-6.90,-29.85,5.85,35.60,118.26,
06/01/2021,01:10:10.18,-314.94,-935.55,96.68,19.09,-24.82,44.57,-6.90,-30.75,4.65,35.55,118.26,
06/01/2021,01:10:10.19,-325.20,-961.91,90.33,23.54,-21.95,37.62,-6.90,-30.75,4.65,35.79,118.26,
06/01/2021,01:10:10.20,-327.64,-978.52,66.89,30.73,-21.22,29.51,-6.00,-29.70,5.55,35.60,118.26,
06/01/2021,01:10:10.21,-342.77,-979.00,62.50,35.37,-19.02,23.90,-6.00,-29.70,5.55,35.60,118.26,
06/01/2021,01:10:10.22,-340.82,-982.91,65.92,38.17,-19.88,19.02,-6.60,-29.55,4.35,35.60,118.26,
06/01/2021,01:10:10.22,-334.96,-994.63,59.57,39.57,-17.38,13.60,-4.35,-30.30,4.65,35.55,118.26,
06/01/2021,01:10:10.26,-369.63,-1234.86,60.55,65.55,-8.41,-23.48,-4.80,-29.85,1.35,35.36,118.26,
06/01/2021,01:10:10.28,-444.34,-1349.12,18.07,83.72,2.20,-51.89,-6.00,-31.95,2.70,35.70,118.25,
06/01/2021,01:10:10.29,-461.43,-1323.73,-21.48,88.29,7.26,-62.44,-6.00,-31.95,2.70,35.55,118.25,
06/01/2021,01:10:10.29,-486.82,-1284.18,-52.73,93.54,13.41,-66.28,-8.25,-32.85,1.50,35.46,118.25,
06/01/2021,01:10:10.30,-496.58,-1237.79,-111.82,100.06,21.10,-67.38,-8.25,-32.85,1.50,35.79,118.25,
06/01/2021,01:10:10.31,-519.53,-1189.94,-178.22,108.11,30.12,-70.24,-7.65,-33.75,2.85,35.55,118.25,
06/01/2021,01:10:10.32,-590.33,-1098.14,-381.35,121.95,72.26,-65.37,-9.60,-33.75,3.15,35.55,118.25,
06/01/2021,01:10:10.33,-595.21,-1055.66,-465.33,124.57,89.63,-62.93,-9.60,-33.75,3.15,35.41,118.25,
06/01/2021,01:10:10.33,-612.79,-1006.35,-538.09,126.28,114.45,-58.23,-10.05,-35.10,3.00,35.75,118.25,
06/01/2021,01:10:10.34,-637.70,-944.34,-599.61,129.88,140.55,-54.51,-10.05,-35.10,3.00,35.60,118.25,
06/01/2021,01:10:10.35,-639.65,-896.00,-654.79,129.63,165.55,-48.72,-12.30,-35.55,3.45,35.60,118.26,
06/01/2021,01:10:10.36,-590.82,-808.11,-716.31,125.98,238.35,-31.04,-13.80,-38.55,6.00,35.70,118.25,
06/01/2021,01:10:10.37,-609.38,-771.00,-717.77,121.77,262.50,-23.90,-13.80,-38.55,6.00,35.55,118.25,
06/01/2021,01:10:10.37,-596.68,-765.14,-688.48,117.93,284.88,-15.00,-13.80,-38.55,6.00,35.46,118.25,
06/01/2021,01:10:10.38,-557.13,-782.23,-677.25,113.90,299.94,-7.68,-13.80,-38.55,6.00,35.46,118.26,
06/01/2021,01:10:10.39,-521.48,-799.32,-626.46,108.96,311.89,0.85,-17.85,-39.30,7.05,35.46,118.26,
06/01/2021,01:10:10.40,-364.75,-908.20,-478.03,90.37,318.41,13.11,-22.65,-39.30,9.30,35.70,118.25,
06/01/2021,01:10:10.41,-246.09,-965.82,-424.32,79.33,303.78,13.84,-22.65,-39.30,9.30,35.60,118.25,
06/01/2021,01:10:10.42,-132.81,-1024.90,-494.14,65.98,291.28,14.76,-24.15,-41.70,10.35,35.22,118.26,
06/01/2021,01:10:10.42,-68.85,-1064.94,-614.26,44.45,275.00,7.07,-24.15,-41.70,10.35,35.60,118.26,
06/01/2021,01:10:10.43,-148.93,-1085.94,-596.68,27.74,260.55,7.74,-26.40,-41.25,12.60,35.70,118.26,
06/01/2021,01:10:10.44,-173.83,-1023.93,-545.90,0.61,168.35,23.60,-26.55,-41.10,12.00,35.55,118.25,
06/01/2021,01:10:10.45,-67.87,-1015.62,-548.83,-7.44,132.50,22.68,-26.55,-41.10,12.00,35.70,118.25,
06/01/2021,01:10:10.46,48.34,-1016.60,-520.51,-14.51,92.13,20.06,-30.60,-41.10,14.25,35.55,118.26,
06/01/2021,01:10:10.46,86.91,-995.61,-474.12,-27.50,47.68,10.06,-30.60,-41.10,14.25,35.70,118.26,
06/01/2021,01:10:10.47,82.03,-1003.42,-416.99,-32.74,-1.59,8.54,-30.60,-41.10,14.25,35.55,118.26,
06/01/2021,01:10:10.47,72.27,-1009.77,-397.46,-40.98,-45.79,7.93,-31.35,-43.05,13.50,35.55,118.26,
06/01/2021,01:10:10.49,1.95,-1008.79,-311.04,-57.44,-161.77,11.65,-32.10,-43.35,13.80,35.60,118.26,
06/01/2021,01:10:10.50,-31.74,-1004.88,-269.04,-64.57,-194.57,11.71,-35.10,-44.55,12.75,35.70,118.26,
06/01/2021,01:10:10.50,-121.58,-994.14,-237.30,-68.05,-218.96,13.48,-35.10,-44.55,12.75,35.46,118.26,
06/01/2021,01:10:10.51,-187.99,-971.19,-224.12,-67.07,-238.05,12.20,-32.70,-43.50,12.90,35.75,118.26,
06/01/2021,01:10:10.51,-259.77,-964.36,-195.31,-69.94,-246.04,15.43,-32.85,-44.85,12.00,35.46,118.26,
06/01/2021,01:10:10.53,-375.98,-924.80,-171.39,-66.28,-236.95,10.18,-32.10,-43.80,9.00,35.22,118.26,
06/01/2021,01:10:10.54,-413.57,-904.30,-162.11,-63.84,-224.94,5.55,-35.85,-45.60,7.20,35.46,118.26,
06/01/2021,01:10:10.54,-441.41,-887.21,-146.97,-61.52,-207.99,2.07,-35.85,-45.60,7.20,35.46,118.26,
06/01/2021,01:10:10.55,-482.42,-860.35,-140.14,-59.94,-190.00,0.55,-34.20,-45.90,7.05,35.70,118.26,
06/01/2021,01:10:10.55,-498.54,-857.42,-144.53,-54.88,-168.84,-1.16,-34.20,-45.90,7.05,35.60,118.26,
06/01/2021,01:10:10.57,-543.95,-812.50,-130.37,-48.96,-107.20,-1.83,-32.40,-46.65,3.75,35.70,118.26,
06/01/2021,01:10:10.58,-543.95,-816.89,-126.95,-45.61,-82.68,-0.67,-32.40,-46.65,3.75,35.55,118.26,
06/01/2021,01:10:10.58,-542.48,-809.57,-112.30,-39.82,-58.17,-3.29,-32.40,-46.65,3.75,35.75,118.26,
06/01/2021,01:10:10.59,-546.39,-817.38,-124.02,-36.22,-33.78,-0.06,-35.85,-48.00,3.60,35.46,118.26,
06/01/2021,01:10:10.59,-527.83,-825.68,-92.77,-35.67,-10.55,-5.55,-36.45,-47.40,3.45,35.60,118.26,
06/01/2021,01:10:10.61,-466.31,-825.68,-80.57,-26.71,40.00,-7.07,-35.55,-46.80,3.90,35.55,118.26,
06/01/2021,01:10:10.62,-466.31,-817.38,-71.78,-22.44,54.09,-5.00,-38.55,-46.65,6.30,35.46,118.26,
06/01/2021,01:10:10.62,-452.15,-839.84,-64.45,-19.70,67.80,-6.95,-38.55,-46.65,6.30,35.41,118.26,
06/01/2021,01:10:10.63,-431.64,-828.61,-47.36,-13.66,76.22,-7.26,-38.55,-48.60,7.05,35.55,118.26,
06/01/2021,01:10:10.63,-406.74,-847.66,-45.90,-8.72,80.98,-5.73,-39.60,-45.30,9.45,35.60,118.26,
06/01/2021,01:10:10.65,-360.35,-855.96,-53.71,-2.56,85.85,-9.09,-39.60,-45.30,9.45,35.60,118.26,
06/01/2021,01:10:10.66,-363.28,-859.38,-35.64,1.89,87.99,-7.01,-42.00,-45.90,11.85,35.36,118.26,
06/01/2021,01:10:10.66,-351.07,-854.49,-38.09,3.41,83.78,-9.82,-42.00,-45.90,11.85,35.46,118.26,
06/01/2021,01:10:10.67,-353.03,-854.98,-35.16,6.22,81.16,-7.07,-42.00,-45.90,11.85,35.46,118.26,
06/01/2021,01:10:10.67,-341.80,-859.86,-23.93,6.59,77.13,-10.55,-42.45,-45.30,12.00,35.46,118.26,
06/01/2021,01:10:10.69,-337.89,-862.79,-21.97,13.54,70.43,-7.07,-41.40,-44.55,13.50,35.60,118.26,
06/01/2021,01:10:10.69,-348.63,-846.19,-18.55,16.77,65.98,-2.44,-43.05,-44.25,15.45,35.46,118.26,
06/01/2021,01:10:10.70,-348.14,-859.38,-17.58,16.28,62.80,-3.60,-43.05,-44.25,15.45,35.55,118.26,
06/01/2021,01:10:10.71,-347.17,-853.03,-11.72,18.60,60.00,-0.24,-43.50,-45.90,15.90,35.70,118.26,
06/01/2021,01:10:10.71,-363.28,-860.35,-12.70,20.49,56.40,2.74,-43.80,-43.50,15.90,35.70,118.26,
06/01/2021,01:10:10.73,-383.79,-867.68,-21.97,23.96,49.09,7.62,-45.30,-43.95,17.70,35.75,118.26,
06/01/2021,01:10:10.76,-381.84,-947.75,-32.71,27.07,41.71,18.96,-45.90,-43.80,18.90,35.41,118.25,
06/01/2021,01:10:10.78,-378.42,-1005.37,-31.25,30.49,40.85,24.09,-46.95,-44.10,20.70,35.79,118.25,
06/01/2021,01:10:10.78,-377.93,-1023.44,-36.13,30.30,37.32,27.68,-45.90,-44.55,20.10,35.46,118.25,
06/01/2021,01:10:10.79,-388.18,-1038.09,-48.83,34.39,39.51,27.01,-45.90,-44.55,20.10,35.60,118.25,
06/01/2021,01:10:10.81,-393.07,-1067.38,-51.27,37.07,34.39,26.71,-47.40,-44.10,22.20,35.70,118.25,
06/01/2021,01:10:10.81,-402.83,-1089.36,-55.66,39.57,34.45,26.10,-47.40,-44.10,22.20,35.55,118.25,
06/01/2021,01:10:10.82,-413.57,-1103.52,-59.57,40.37,33.66,28.78,-48.30,-44.25,21.30,35.60,118.25,
06/01/2021,01:10:10.82,-414.55,-1103.03,-82.03,43.29,34.94,29.33,-46.95,-44.10,24.45,35.55,118.25,
06/01/2021,01:10:10.83,-415.04,-1126.95,-94.24,46.77,35.00,29.88,-46.95,-44.10,24.45,35.46,118.25,
06/01/2021,01:10:10.84,-428.22,-1148.44,-101.07,47.99,38.72,26.77,-46.35,-46.20,21.30,35.46,118.25,
06/01/2021,01:10:10.85,-433.59,-1245.12,-160.16,51.22,47.50,26.83,-46.35,-46.20,21.30,35.46,118.25,
06/01/2021,01:10:10.86,-442.87,-1317.38,-171.88,53.29,51.28,26.28,-48.45,-47.25,25.50,35.46,118.25,
06/01/2021,01:10:10.86,-448.24,-1354.00,-211.43,52.80,57.20,25.67,-48.45,-47.25,25.50,35.55,118.25,
06/01/2021,01:10:10.87,-461.43,-1375.98,-220.70,53.41,63.23,24.45,-48.45,-47.25,25.50,35.60,118.25,
06/01/2021,01:10:10.88,-465.82,-1366.70,-235.35,53.96,68.60,24.45,-48.45,-49.20,28.50,35.46,118.25,
06/01/2021,01:10:10.89,-461.91,-1229.49,-271.00,44.57,88.23,20.79,-46.35,-46.95,29.40,35.89,118.25,
06/01/2021,01:10:10.90,-459.47,-1148.93,-299.32,46.34,94.02,26.34,-48.30,-46.20,31.20,35.70,118.25,
06/01/2021,01:10:10.90,-432.13,-1081.05,-303.71,44.70,99.63,27.80,-46.35,-46.65,31.95,35.70,118.25,
06/01/2021,01:10:10.91,-425.78,-1042.48,-327.64,45.12,107.13,29.27,-46.35,-46.65,31.95,35.60,118.25,
06/01/2021,01:10:10.92,-411.62,-1026.37,-339.84,42.07,108.48,32.20,-46.95,-48.30,33.90,35.55,118.26,
06/01/2021,01:10:10.93,-364.26,-992.68,-378.42,38.23,120.85,39.21,-44.70,-47.25,32.85,35.55,118.25,
06/01/2021,01:10:10.94,-347.17,-1004.39,-385.74,33.90,123.17,41.22,-44.70,-47.25,32.85,35.46,118.25,
06/01/2021,01:10:10.94,-309.57,-1014.65,-376.46,29.39,125.91,42.93,-45.45,-47.55,37.95,35.36,118.25,
06/01/2021,01:10:10.95,-288.09,-1025.39,-371.09,24.09,127.99,43.11,-45.45,-47.55,37.95,35.79,118.26,
06/01/2021,01:10:10.96,-274.90,-1037.60,-358.89,19.02,125.67,43.96,-45.45,-47.55,37.95,35.75,118.26,
06/01/2021,01:10:10.97,-202.64,-1022.95,-296.39,5.49,107.93,37.07,-43.05,-45.45,39.60,35.55,118.25,
06/01/2021,01:10:10.98,-186.52,-1013.67,-269.04,1.52,98.29,33.96,-42.15,-48.00,44.10,35.55,118.25,
06/01/2021,01:10:10.98,-123.05,-1004.39,-243.65,-1.83,83.05,29.27,-42.30,-45.90,42.15,35.55,118.26,
06/01/2021,01:10:10.99,-119.63,-975.10,-221.19,-9.33,68.78,21.04,-42.30,-45.90,42.15,35.55,118.26,
06/01/2021,01:10:11.00,-121.09,-948.24,-200.20,-13.29,49.70,17.62,-40.65,-46.50,43.80,35.36,118.26,
06/01/2021,01:10:11.01,-118.65,-899.90,-181.15,-24.45,-6.52,3.84,-39.30,-45.45,43.20,35.79,118.25,
06/01/2021,01:10:11.02,-144.53,-885.74,-186.52,-28.11,-25.12,1.59,-42.45,-45.60,46.05,35.60,118.26,
06/01/2021,01:10:11.02,-149.90,-866.70,-186.04,-30.49,-42.68,-2.01,-42.45,-45.60,46.05,35.36,118.26,
06/01/2021,01:10:11.03,-172.85,-872.07,-189.45,-35.06,-56.22,-6.95,-42.45,-45.60,46.05,35.60,118.26,
06/01/2021,01:10:11.04,-188.96,-851.07,-189.45,-39.02,-66.34,-12.80,-39.75,-43.95,44.70,35.60,118.26,
06/01/2021,01:10:11.05,-214.84,-846.19,-180.18,-41.10,-87.38,-20.91,-39.75,-43.95,44.70,35.46,118.26,
06/01/2021,01:10:11.06,-230.96,-838.38,-169.92,-42.50,-90.24,-28.84,-41.25,-45.15,44.40,35.60,118.26,
06/01/2021,01:10:11.07,-253.91,-846.68,-165.53,-43.72,-94.63,-34.02,-39.30,-43.20,43.95,35.55,118.26,
06/01/2021,01:10:11.07,-267.58,-857.42,-140.62,-44.88,-101.71,-38.48,-39.30,-43.20,43.95,35.60,118.26,
06/01/2021,01:10:11.08,-275.39,-871.09,-126.46,-47.20,-105.49,-44.63,-39.30,-42.45,41.85,35.55,118.26,
06/01/2021,01:10:11.09,-339.36,-911.62,-111.82,-48.84,-115.18,-54.45,-0.75,-42.15,40.20,35.55,118.26,
06/01/2021,01:10:11.10,-359.86,-906.74,-95.21,-49.88,-122.07,-57.50,-39.15,-43.05,41.25,35.60,118.26,
06/01/2021,01:10:11.11,-375.00,-916.99,-104.49,-51.34,-121.77,-59.76,-40.05,-42.45,39.60,35.46,118.26,
06/01/2021,01:10:11.11,-402.34,-914.06,-103.03,-51.89,-120.67,-63.84,-40.05,-42.45,39.60,35.60,118.26,
06/01/2021,01:10:11.12,-425.29,-917.48,-111.82,-53.17,-115.43,-67.07,-40.05,-42.45,39.60,35.46,118.26,
06/01/2021,01:10:11.13,-459.96,-904.79,-87.89,-52.38,-104.27,-68.41,-40.50,-40.50,36.30,35.55,118.26,
06/01/2021,01:10:11.14,-466.80,-893.55,-98.14,-50.73,-95.79,-69.39,-40.50,-40.50,36.30,35.46,118.26,
06/01/2021,01:10:11.15,-479.49,-900.88,-99.12,-50.67,-89.70,-67.68,-40.80,-39.30,35.55,35.46,118.26,
06/01/2021,01:10:11.15,-491.21,-877.93,-93.26,-47.50,-80.43,-63.05,-40.80,-39.30,35.55,35.22,118.26,
06/01/2021,01:10:11.16,-503.91,-876.95,-96.68,-46.59,-71.22,-62.74,-40.80,-39.30,35.55,35.41,118.26,
06/01/2021,01:10:11.17,-494.63,-866.21,-81.05,-41.71,-46.71,-51.71,-42.45,-38.40,32.85,35.70,118.26,
06/01/2021,01:10:11.18,-479.49,-855.47,-77.64,-40.00,-39.15,-46.71,-42.45,-38.40,32.85,35.27,118.26,
06/01/2021,01:10:11.19,-468.26,-854.49,-79.59,-39.39,-31.10,-42.99,-42.90,-37.65,34.35,35.79,118.26,
06/01/2021,01:10:11.19,-455.57,-864.75,-60.55,-36.10,-23.90,-38.66,-42.90,-37.65,34.35,35.79,118.26,
06/01/2021,01:10:11.20,-439.94,-850.10,-59.08,-35.79,-17.87,-34.15,-42.45,-35.25,32.85,35.46,118.26,
06/01/2021,01:10:11.21,-409.67,-854.49,-34.18,-34.02,-10.06,-23.54,-42.30,-36.30,33.00,35.70,118.26,
06/01/2021,01:10:11.22,-402.83,-869.14,-32.71,-28.90,-8.54,-15.85,-42.30,-36.30,33.00,35.46,118.26,
06/01/2021,01:10:11.23,-377.44,-875.00,-22.46,-30.06,-9.63,-12.44,-42.30,-36.30,33.00,35.55,118.26,
06/01/2021,01:10:11.23,-391.60,-873.54,-15.14,-29.39,-11.04,-8.05,-42.30,-36.30,33.00,35.55,118.26,
06/01/2021,01:10:11.24,-366.70,-882.32,-13.67,-28.60,-14.21,-2.38,-41.55,-35.10,30.75,35.55,118.26,
06/01/2021,01:10:11.28,-342.29,-881.84,-11.23,-30.49,-49.57,15.12,-42.15,-34.95,30.60,35.60,118.25,
06/01/2021,01:10:11.30,-330.08,-888.18,-11.23,-31.28,-58.29,17.20,-43.80,-33.60,29.40,35.27,118.25,
06/01/2021,01:10:11.30,-336.91,-889.16,-5.37,-33.66,-63.05,18.48,-43.80,-33.60,29.40,35.70,118.25,
06/01/2021,01:10:11.31,-343.26,-893.07,-6.84,-31.89,-65.91,19.76,-42.15,-34.50,26.55,35.55,118.25,
06/01/2021,01:10:11.32,-349.12,-905.76,-11.23,-33.78,-70.61,19.70,-42.15,-34.50,26.55,35.46,118.25,
06/01/2021,01:10:11.33,-332.03,-908.69,-6.84,-33.84,-75.18,19.33,-42.90,-34.20,27.00,35.55,118.25,
06/01/2021,01:10:11.34,-327.15,-919.43,-5.86,-34.39,-78.05,13.60,-42.90,-34.20,27.00,35.46,118.25,
06/01/2021,01:10:11.34,-324.22,-940.92,3.42,-34.45,-81.10,16.34,-42.75,-32.85,26.85,35.46,118.25,
06/01/2021,01:10:11.35,-334.96,-949.71,8.79,-33.35,-83.23,13.60,-42.75,-32.85,26.85,35.55,118.25,
06/01/2021,01:10:11.36,-339.84,-963.87,3.91,-35.06,-83.29,10.06,-43.65,-32.55,25.50,35.60,118.25,
06/01/2021,01:10:11.37,-331.54,-980.96,-2.44,-33.29,-90.24,6.04,-41.70,-34.50,23.70,35.70,118.25,
06/01/2021,01:10:11.38,-328.61,-1013.18,1.46,-34.39,-91.04,3.48,-42.45,-34.20,25.20,35.60,118.25,
06/01/2021,01:10:11.38,-343.75,-1004.39,0.00,-32.26,-96.40,1.71,-42.45,-33.00,25.20,35.46,118.25,
06/01/2021,01:10:11.39,-349.61,-1018.55,6.35,-32.68,-97.38,-3.48,-42.45,-33.00,25.20,35.60,118.25,
06/01/2021,01:10:11.40,-350.59,-1025.88,3.91,-30.37,-99.70,-4.27,-43.95,-34.50,21.90,35.55,118.25,
06/01/2021,01:10:11.41,-354.00,-1062.01,-16.60,-28.60,-105.49,-9.70,-41.25,-33.15,21.30,35.55,118.25,
06/01/2021,01:10:11.42,-344.73,-1061.04,-34.18,-30.30,-107.62,-12.26,-44.40,-34.50,20.40,35.55,118.25,
06/01/2021,01:10:11.42,-357.91,-1065.92,-41.99,-27.62,-107.13,-13.84,-44.40,-34.50,20.40,35.94,118.25,
06/01/2021,01:10:11.43,-370.12,-1066.89,-41.99,-28.60,-111.04,-17.99,-44.40,-34.50,20.40,35.46,118.25,
06/01/2021,01:10:11.44,-350.10,-1077.15,-37.60,-27.20,-108.29,-21.95,-43.80,-34.35,17.70,35.60,118.25,
06/01/2021,01:10:11.45,-374.51,-1181.64,-27.34,-22.32,-112.74,-30.43,-43.80,-34.35,17.70,35.79,118.25,
06/01/2021,01:10:11.46,-404.30,-1234.38,-17.58,-20.12,-115.49,-33.35,-42.75,-33.90,16.95,35.60,118.25,
06/01/2021,01:10:11.47,-402.34,-1289.06,-23.93,-17.74,-112.93,-36.89,-42.45,-32.55,16.35,35.70,118.25,
06/01/2021,01:10:11.47,-421.88,-1328.61,-33.20,-17.87,-114.63,-42.80,-42.45,-32.55,16.35,35.46,118.25,
06/01/2021,01:10:11.48,-417.97,-1360.35,-36.13,-16.40,-110.85,-48.90,-42.45,-33.75,16.35,35.60,118.25,
06/01/2021,01:10:11.49,-446.78,-1235.84,-95.70,-12.20,-108.29,-59.39,-41.55,-30.90,14.40,35.41,118.25,
06/01/2021,01:10:11.50,-466.80,-1189.45,-95.21,-9.33,-105.43,-62.50,-43.05,-31.65,14.70,35.46,118.25,
06/01/2021,01:10:11.51,-469.24,-1132.32,-134.77,-6.28,-101.34,-64.94,-42.30,-30.90,13.20,35.55,118.25,
06/01/2021,01:10:11.51,-469.24,-1101.56,-163.09,-2.80,-95.18,-68.17,-42.30,-30.90,13.20,35.60,118.25,
06/01/2021,01:10:11.52,-480.47,-1070.31,-210.45,0.67,-90.73,-66.77,-42.30,-30.90,13.20,35.46,118.25,
06/01/2021,01:10:11.53,-500.98,-964.36,-277.34,4.15,-66.10,-66.77,-41.70,-29.10,12.30,35.70,118.25,
06/01/2021,01:10:11.54,-504.88,-906.25,-319.82,3.90,-55.37,-64.02,-41.70,-29.10,12.30,35.60,118.25,
06/01/2021,01:10:11.55,-500.00,-866.21,-329.59,4.82,-44.82,-60.79,-42.75,-28.95,11.85,35.79,118.25,
06/01/2021,01:10:11.55,-504.39,-830.08,-333.50,5.18,-34.45,-55.12,-42.75,-28.95,11.85,35.60,118.25,
06/01/2021,01:10:11.56,-496.09,-801.76,-351.07,1.95,-23.17,-54.02,-42.15,-28.05,11.25,35.46,118.25,
06/01/2021,01:10:11.57,-440.43,-794.92,-330.08,-0.18,-3.41,-39.82,-41.25,-28.20,12.15,35.55,118.25,
06/01/2021,01:10:11.58,-439.45,-825.68,-295.90,-0.06,2.80,-33.96,-43.05,-28.50,12.60,35.60,118.25,
06/01/2021,01:10:11.59,-411.13,-833.50,-289.06,-2.44,5.67,-30.37,-43.20,-27.60,12.00,35.60,118.25,
06/01/2021,01:10:11.59,-387.21,-854.98,-267.09,-4.82,8.23,-22.20,-43.20,-27.60,12.00,35.36,118.26,
06/01/2021,01:10:11.60,-369.63,-880.86,-235.84,-7.80,6.65,-20.98,-43.65,-27.15,13.80,35.60,118.26,
06/01/2021,01:10:11.61,-312.99,-945.31,-164.06,-16.52,-11.10,-14.09,-43.65,-27.15,13.80,35.55,118.25,
06/01/2021,01:10:11.62,-298.34,-971.19,-149.90,-19.09,-20.61,-10.98,-44.85,-27.00,14.40,35.41,118.25,
06/01/2021,01:10:11.63,-296.88,-990.72,-147.95,-22.20,-31.28,-7.44,-44.85,-27.00,14.40,35.60,118.25,
06/01/2021,01:10:11.63,-289.06,-1000.00,-136.23,-26.16,-45.79,-5.67,-44.85,-27.00,14.40,35.55,118.26,
06/01/2021,01:10:11.64,-272.95,-1009.28,-119.14,-30.12,-57.44,0.61,-41.40,-24.90,14.85,35.55,118.26,
06/01/2021,01:10:11.66,-263.67,-1021.00,-133.79,-41.59,-97.26,7.62,-41.40,-24.90,14.85,35.75,118.25,
06/01/2021,01:10:11.66,-274.90,-1025.88,-123.54,-43.54,-115.12,11.46,-42.45,-25.65,14.55,35.60,118.25,
06/01/2021,01:10:11.67,-273.44,-1012.70,-121.09,-46.16,-127.80,13.78,-41.55,-25.50,13.20,35.55,118.26,
06/01/2021,01:10:11.67,-294.43,-1016.11,-120.12,-51.95,-140.61,14.39,-41.55,-25.50,13.20,35.46,118.26,
06/01/2021,01:10:11.68,-306.64,-993.65,-125.98,-51.10,-149.76,19.15,-41.40,-25.65,11.70,35.70,118.26,
06/01/2021,01:10:11.70,-321.78,-923.83,-120.12,-57.38,-167.20,24.57,-39.90,-24.60,12.00,35.70,118.25,
06/01/2021,01:10:11.70,-349.61,-901.86,-130.86,-54.33,-172.13,27.13,-39.90,-24.60,12.00,35.60,118.26,
06/01/2021,01:10:11.71,-343.75,-884.77,-135.74,-53.48,-174.21,29.21,-40.80,-24.75,10.05,35.46,118.26,
06/01/2021,01:10:11.71,-359.38,-854.98,-131.35,-51.52,-174.21,31.04,-40.80,-24.75,10.05,35.60,118.26,
06/01/2021,01:10:11.72,-363.77,-838.38,-152.83,-52.50,-171.16,32.68,-40.80,-24.75,10.05,35.75,118.26,
06/01/2021,01:10:11.74,-392.58,-797.36,-159.67,-48.84,-162.68,34.63,-37.50,-25.80,5.55,35.55,118.26,
06/01/2021,01:10:11.74,-393.55,-793.95,-155.27,-45.24,-155.18,35.24,-37.50,-25.80,5.55,35.60,118.26,
06/01/2021,01:10:11.75,-393.07,-769.53,-166.99,-45.24,-150.12,34.88,-35.10,-26.10,6.15,35.70,118.26,
06/01/2021,01:10:11.75,-392.58,-786.13,-164.06,-41.77,-140.55,36.46,-35.10,-26.10,6.15,35.46,118.26,
06/01/2021,01:10:11.79,-373.05,-761.23,-165.04,-32.74,-94.70,29.15,-31.80,-26.85,4.65,35.46,118.25,
06/01/2021,01:10:11.81,-350.10,-759.77,-145.02,-22.62,-78.11,16.52,-31.95,-26.70,3.45,35.55,118.25,
06/01/2021,01:10:11.82,-333.01,-763.67,-148.93,-20.67,-74.63,9.57,-30.30,-27.15,4.65,35.46,118.25,
06/01/2021,01:10:11.83,-331.05,-746.09,-156.74,-17.99,-72.32,6.71,-30.30,-27.15,4.65,35.75,118.25,
06/01/2021,01:10:11.83,-330.08,-747.07,-156.74,-16.04,-71.52,1.46,-30.30,-27.15,4.65,35.55,118.25,
06/01/2021,01:10:11.84,-334.47,-769.04,-162.11,-15.37,-70.43,-2.56,-28.95,-27.45,3.75,35.60,118.25,
06/01/2021,01:10:11.85,-333.98,-771.48,-157.71,-6.83,-64.70,-13.54,-28.20,-25.50,1.95,35.60,118.25,
06/01/2021,01:10:11.86,-342.29,-772.46,-160.64,-5.67,-60.37,-18.60,-28.05,-26.85,2.55,35.55,118.25,
06/01/2021,01:10:11.87,-333.50,-750.98,-148.93,-3.11,-59.76,-22.87,-28.05,-26.85,2.55,35.70,118.25,
06/01/2021,01:10:11.87,-324.71,-756.35,-163.09,-0.24,-57.93,-26.34,-28.20,-27.45,4.20,35.55,118.25,
06/01/2021,01:10:11.88,-338.38,-767.09,-162.60,0.18,-58.48,-29.21,-27.15,-27.45,1.95,35.70,118.25,
06/01/2021,01:10:11.89,-378.42,-792.97,-187.01,7.44,-53.90,-37.99,-25.65,-27.75,1.20,35.55,118.25,
06/01/2021,01:10:11.90,-386.23,-797.85,-207.52,6.59,-51.34,-37.07,-27.30,-27.15,5.10,35.46,118.25,
06/01/2021,01:10:11.91,-405.76,-821.78,-216.31,6.22,-49.70,-39.21,-27.30,-27.15,5.10,35.60,118.25,
06/01/2021,01:10:11.91,-413.57,-843.26,-230.96,6.71,-49.39,-41.89,-25.80,-26.85,3.60,35.55,118.25,
06/01/2021,01:10:11.92,-417.48,-864.26,-241.70,6.65,-46.10,-44.57,-25.80,-26.85,3.60,35.27,118.25,
06/01/2021,01:10:11.93,-485.84,-919.43,-281.74,3.05,-42.62,-46.89,-22.65,-27.45,2.25,35.79,118.25,
06/01/2021,01:10:11.94,-472.66,-945.80,-273.44,1.71,-46.71,-46.46,-22.65,-27.45,2.25,35.55,118.25,
06/01/2021,01:10:11.95,-494.14,-989.26,-303.71,1.34,-48.96,-43.90,-24.30,-27.45,2.25,35.79,118.25,
06/01/2021,01:10:11.95,-478.03,-1024.41,-320.31,-3.35,-53.66,-46.28,-24.30,-28.35,3.15,35.55,118.25,
06/01/2021,01:10:11.96,-498.54,-1043.95,-331.05,-9.57,-63.84,-46.40,-25.05,-26.85,3.60,35.46,118.25,
06/01/2021,01:10:11.97,-661.62,-1078.12,-341.80,-15.49,-87.38,-37.44,-24.15,-25.80,2.25,35.75,118.25,
06/01/2021,01:10:11.98,-727.54,-1062.99,-365.23,-10.98,-89.09,-32.68,-25.05,-27.15,3.60,35.22,118.25,
06/01/2021,01:10:11.99,-784.67,-1048.34,-390.62,-10.67,-91.59,-27.99,-23.25,-26.85,2.85,35.55,118.25,
06/01/2021,01:10:11.99,-765.14,-1058.59,-388.18,-6.59,-84.82,-34.15,-23.25,-26.85,2.85,35.60,118.25,
06/01/2021,01:10:12.00,-653.32,-1100.10,-430.66,-5.85,-75.85,-43.66,-22.65,-26.25,3.45,35.55,118.25,
06/01/2021,01:10:12.02,-599.12,-1271.48,-380.37,-3.35,-47.01,-67.26,-22.65,-26.25,3.45,35.60,118.25,
06/01/2021,01:10:12.02,-566.89,-1334.96,-362.79,1.10,-40.30,-69.02,-20.25,-29.10,6.45,35.46,118.25,
06/01/2021,01:10:12.03,-566.89,-1382.81,-358.40,3.11,-39.21,-69.76,-20.25,-29.10,6.45,35.46,118.25,
06/01/2021,01:10:12.03,-554.69,-1417.48,-336.91,2.01,-35.67,-73.54,-20.25,-29.10,6.45,35.60,118.25,
06/01/2021,01:10:12.04,-543.46,-1454.10,-344.24,-0.67,-37.62,-70.61,-19.35,-25.80,3.75,35.07,118.25,
06/01/2021,01:10:12.05,-551.27,-1434.57,-333.50,-5.73,-33.17,-73.35,-19.35,-25.80,3.75,35.46,118.25,
06/01/2021,01:10:12.06,-667.97,-1268.55,-236.82,-14.21,-25.18,-59.57,-19.80,-25.80,5.55,35.79,118.25,
06/01/2021,01:10:12.07,-696.78,-1184.08,-196.29,-17.20,-20.30,-53.17,-19.80,-26.25,5.25,35.60,118.25,
06/01/2021,01:10:12.07,-687.01,-1106.45,-173.34,-17.26,-10.73,-45.73,-19.80,-26.25,5.25,35.46,118.25,
06/01/2021,01:10:12.08,-670.90,-1038.09,-162.60,-17.01,-1.16,-37.26,-18.60,-25.80,6.75,35.46,118.25,
06/01/2021,01:10:12.09,-643.07,-978.52,-174.80,-14.94,11.89,-28.60,-18.60,-25.80,6.75,35.55,118.25,
06/01/2021,01:10:12.10,-612.30,-888.67,-183.11,-12.99,53.54,-3.60,-16.80,-24.30,5.25,34.93,118.25,
06/01/2021,01:10:12.11,-594.24,-880.37,-174.32,-12.26,66.52,3.90,-15.60,-26.25,8.55,35.46,118.25,
06/01/2021,01:10:12.11,-576.17,-890.14,-178.22,-11.28,75.24,15.12,-15.60,-26.25,8.55,35.46,118.25,
06/01/2021,01:10:12.12,-526.37,-908.69,-177.73,-12.68,91.04,22.99,-15.60,-26.25,8.55,35.46,118.25,
06/01/2021,01:10:12.13,-500.00,-933.11,-172.85,-10.49,100.79,29.21,-15.60,-26.25,8.55,35.46,118.25,
06/01/2021,01:10:12.14,-456.05,-988.77,-142.58,-13.29,121.40,33.60,-14.25,-23.55,6.75,35.55,118.25,
06/01/2021,01:10:12.15,-446.78,-1008.79,-130.86,-15.91,125.73,33.96,-14.70,-25.65,8.70,35.41,118.25,
06/01/2021,01:10:12.15,-439.45,-1003.42,-125.00,-18.84,124.02,37.07,-14.70,-25.65,8.70,35.60,118.25,
06/01/2021,01:10:12.16,-416.02,-1002.44,-100.59,-22.50,122.68,42.50,-15.15,-26.40,9.45,35.41,118.25,
06/01/2021,01:10:12.17,-397.46,-1012.21,-95.70,-25.98,115.00,44.45,-15.15,-26.40,9.45,35.55,118.25,
06/01/2021,01:10:12.18,-331.54,-1010.25,-60.55,-29.76,85.43,44.88,-14.70,-24.90,9.75,35.46,118.25,
06/01/2021,01:10:12.19,-327.15,-1025.39,-65.92,-33.78,71.71,45.00,-13.65,-25.65,9.00,35.36,118.25,
06/01/2021,01:10:12.19,-317.38,-1019.53,-37.11,-37.74,55.73,46.22,-13.65,-25.65,9.00,35.79,118.25,
06/01/2021,01:10:12.20,-289.55,-1020.02,-49.32,-36.16,39.57,51.71,-13.50,-24.00,10.05,35.60,118.25,
06/01/2021,01:10:12.21,-288.09,-1027.83,-37.60,-41.10,21.71,49.70,-13.50,-24.00,10.05,35.60,118.25,
06/01/2021,01:10:12.22,-316.41,-1023.93,-44.43,-47.32,-14.02,53.11,-11.40,-24.90,9.00,35.75,118.25,
06/01/2021,01:10:12.23,-349.61,-1020.51,-37.11,-47.74,-23.90,52.62,-11.40,-24.90,9.00,35.60,118.25,
06/01/2021,01:10:12.23,-334.47,-999.51,-32.23,-47.07,-30.61,52.93,-11.40,-24.90,9.00,35.60,118.25,
06/01/2021,01:10:12.24,-366.70,-991.21,-41.50,-45.98,-34.27,52.87,-12.00,-23.55,8.55,35.79,118.25,
06/01/2021,01:10:12.25,-356.93,-981.93,-25.39,-49.33,-38.96,52.13,-12.00,-23.55,8.55,35.55,118.26,
06/01/2021,01:10:12.26,-396.97,-938.96,-8.30,-48.41,-40.98,54.09,-9.90,-24.90,8.70,35.46,118.25,
06/01/2021,01:10:12.30,-406.25,-839.36,-2.44,-38.54,-23.78,55.73,-8.70,-24.00,7.80,35.60,118.25,
06/01/2021,01:10:12.31,-403.81,-843.75,-0.49,-31.34,-13.17,60.43,-8.25,-22.80,7.05,35.55,118.25,
06/01/2021,01:10:12.32,-388.18,-826.66,-14.65,-28.41,-4.45,62.74,-8.25,-22.80,7.05,35.36,118.25,
06/01/2021,01:10:12.32,-395.02,-826.17,-8.79,-26.65,-5.24,63.11,-8.25,-22.80,7.05,35.55,118.25,
06/01/2021,01:10:12.34,-371.09,-806.15,2.44,-20.24,11.65,64.70,-5.70,-23.25,6.30,35.60,118.25,
06/01/2021,01:10:12.35,-373.54,-804.69,-10.74,-17.80,14.02,66.89,-5.70,-23.25,6.30,35.75,118.25,
06/01/2021,01:10:12.35,-353.52,-812.01,-3.91,-15.00,15.91,67.62,-5.85,-24.15,6.15,35.70,118.25,
06/01/2021,01:10:12.36,-344.24,-828.61,2.44,-13.54,18.05,68.41,-5.85,-24.15,6.15,35.70,118.25,
06/01/2021,01:10:12.36,-336.43,-819.82,-3.42,-13.66,21.95,66.95,-6.00,-23.25,6.00,35.46,118.25,
06/01/2021,01:10:12.38,-318.85,-846.19,12.21,-9.09,19.39,67.74,-6.60,-23.40,5.40,35.55,118.25,
06/01/2021,01:10:12.38,-328.61,-848.63,2.44,-8.78,19.63,67.13,-6.60,-23.40,5.40,35.46,118.25,
06/01/2021,01:10:12.39,-329.10,-851.56,8.79,-9.51,19.76,66.89,-5.10,-23.70,5.85,35.55,118.25,
06/01/2021,01:10:12.40,-308.11,-861.82,6.84,-7.80,15.85,65.85,-5.10,-23.70,5.85,35.46,118.25,
06/01/2021,01:10:12.40,-316.41,-854.00,15.62,-9.45,16.10,63.60,-5.70,-22.35,6.30,35.55,118.25,
06/01/2021,01:10:12.41,-301.76,-881.35,0.98,-6.59,11.71,62.32,-5.70,-22.35,6.30,35.75,118.25,
06/01/2021,01:10:12.42,-305.18,-882.81,15.62,-8.96,6.22,57.99,-4.35,-23.70,7.20,35.46,118.25,
06/01/2021,01:10:12.43,-291.99,-882.32,23.44,-9.76,3.60,54.63,-4.35,-23.70,7.20,35.55,118.25,
06/01/2021,01:10:12.44,-301.76,-869.14,15.62,-9.88,0.55,50.30,-4.35,-23.70,7.20,35.46,118.25,
06/01/2021,01:10:12.44,-301.76,-873.05,-4.88,-9.21,-4.15,49.63,-4.80,-24.90,5.85,35.75,118.25,
06/01/2021,01:10:12.45,-280.27,-878.42,7.81,-9.57,-8.48,50.55,-4.80,-24.90,5.85,35.55,118.25,
06/01/2021,01:10:12.46,-283.20,-872.07,11.72,-9.63,-16.83,43.41,-5.55,-24.60,6.90,35.70,118.25,
06/01/2021,01:10:12.47,-278.81,-850.59,9.28,-9.94,-21.46,41.89,-5.55,-25.35,5.10,35.22,118.25,
06/01/2021,01:10:12.47,-281.25,-872.07,4.39,-7.93,-25.12,42.87,-5.55,-25.35,5.10,35.46,118.25,
06/01/2021,01:10:12.48,-275.39,-878.91,-9.28,-8.05,-27.44,40.24,-4.80,-24.90,5.85,35.55,118.25,
06/01/2021,01:10:12.49,-289.06,-880.86,3.42,-6.28,-30.67,38.66,-4.80,-24.90,5.85,35.75,118.25,
06/01/2021,01:10:12.50,-296.88,-897.46,-3.42,-3.90,-40.49,30.67,-3.30,-23.40,5.40,35.46,118.25,
06/01/2021,01:10:12.51,-302.25,-897.46,-10.25,-4.02,-42.44,30.37,-3.30,-23.40,5.40,35.60,118.25,
06/01/2021,01:10:12.51,-310.55,-904.79,-25.39,-2.68,-43.54,26.46,-4.35,-25.65,6.15,35.60,118.25,
06/01/2021,01:10:12.52,-297.85,-916.02,-25.88,-2.68,-44.82,23.78,-4.35,-25.65,6.15,35.55,118.25,
06/01/2021,01:10:12.53,-307.13,-913.57,-34.67,-0.24,-44.33,19.15,-4.35,-25.65,6.15,35.60,118.25,
06/01/2021,01:10:12.53,-300.29,-915.53,-31.25,-0.91,-45.67,16.89,-2.85,-24.90,4.65,35.55,118.25,
06/01/2021,01:10:12.56,-314.45,-944.34,-64.94,5.18,-42.44,1.22,-3.45,-27.00,7.35,35.55,118.25,
06/01/2021,01:10:12.56,-317.38,-951.17,-86.43,6.52,-43.90,-4.33,-1.95,-25.05,6.30,35.55,118.25,
06/01/2021,01:10:12.57,-321.29,-958.01,-90.33,8.17,-41.52,-11.95,-2.10,-26.40,5.40,35.70,118.25,
06/01/2021,01:10:12.57,-310.55,-948.24,-99.12,5.91,-37.07,-15.67,-2.10,-26.40,5.40,35.55,118.25,
06/01/2021,01:10:12.58,-334.96,-939.45,-137.21,7.26,-34.76,-18.66,-2.40,-25.05,5.25,35.79,118.25,
06/01/2021,01:10:12.60,-334.96,-954.59,-153.81,10.61,-27.62,-31.46,-2.40,-25.05,5.25,35.46,118.25,
06/01/2021,01:10:12.60,-339.36,-976.56,-158.20,12.26,-28.35,-37.44,-2.55,-26.40,5.85,35.46,118.25,
06/01/2021,01:10:12.61,-345.70,-1014.65,-141.11,14.02,-23.35,-43.78,-2.55,-26.40,5.85,35.55,118.25,
06/01/2021,01:10:12.61,-353.03,-1083.98,-131.35,13.72,-22.87,-48.96,-2.55,-26.40,5.85,35.55,118.25,
06/01/2021,01:10:12.62,-360.35,-1168.95,-111.82,16.52,-23.11,-58.66,-3.00,-26.25,6.30,35.55,118.25,
06/01/2021,01:10:12.64,-386.23,-1391.11,-158.69,18.54,-21.83,-86.46,-1.65,-25.05,4.80,35.75,118.25,
06/01/2021,01:10:12.64,-394.53,-1457.03,-147.46,20.37,-21.71,-95.43,-3.45,-23.55,4.80,35.55,118.25,
06/01/2021,01:10:12.65,-433.59,-1462.89,-196.29,20.79,-20.43,-102.26,-3.45,-23.55,4.80,35.60,118.25,
06/01/2021,01:10:12.65,-457.52,-1428.22,-236.82,20.61,-18.35,-110.37,-1.80,-26.10,4.65,35.55,118.25,
06/01/2021,01:10:12.66,-484.38,-1356.45,-290.04,21.52,-17.93,-119.51,-2.85,-24.60,5.10,35.55,118.25,
06/01/2021,01:10:12.68,-510.25,-1158.69,-461.43,28.48,-0.98,-128.90,-2.55,-25.35,6.15,35.55,118.25,
06/01/2021,01:10:12.68,-525.88,-1104.00,-507.81,31.83,8.48,-122.87,-2.10,-26.85,6.15,35.41,118.25,
06/01/2021,01:10:12.69,-531.25,-1076.17,-549.32,33.17,20.85,-126.04,-2.10,-26.85,6.15,35.60,118.25,
06/01/2021,01:10:12.69,-528.81,-1039.55,-582.03,31.34,35.79,-125.37,-3.45,-25.80,5.55,35.55,118.25,
06/01/2021,01:10:12.70,-541.02,-1014.65,-583.50,35.37,47.13,-125.61,-3.45,-25.80,5.55,35.79,118.25,
06/01/2021,01:10:12.72,-530.76,-928.22,-590.82,28.66,77.20,-117.20,-4.35,-26.10,5.85,35.60,118.25,
06/01/2021,01:10:12.72,-527.34,-897.95,-557.13,30.06,83.72,-114.51,-4.35,-26.10,5.85,35.60,118.25,
06/01/2021,01:10:12.73,-532.71,-887.70,-536.13,23.90,91.22,-107.99,-4.35,-26.10,5.85,35.55,118.25,
06/01/2021,01:10:12.73,-501.95,-876.95,-498.54,20.79,97.80,-104.02,-6.60,-25.65,7.95,35.36,118.25,
06/01/2021,01:10:12.74,-488.28,-872.56,-479.98,22.99,101.40,-96.65,-6.75,-25.50,5.55,35.55,118.25,
06/01/2021,01:10:12.76,-446.78,-915.53,-396.97,12.13,103.11,-81.59,-6.90,-26.85,6.15,35.60,118.25,
06/01/2021,01:10:12.76,-418.46,-937.99,-362.79,7.93,100.30,-74.63,-9.30,-24.75,8.85,35.70,118.25,
06/01/2021,01:10:12.77,-384.77,-962.89,-334.47,3.29,91.22,-68.90,-9.30,-24.75,8.85,35.55,118.25,
06/01/2021,01:10:12.82,-211.91,-1007.32,-115.72,-46.77,-63.54,-12.01,-9.30,-25.05,7.35,35.60,118.25,
06/01/2021,01:10:12.84,-271.97,-991.70,-127.93,-57.13,-111.77,5.18,-9.30,-25.50,8.55,35.60,118.25,
06/01/2021,01:10:12.85,-305.18,-942.87,-116.70,-65.12,-149.02,17.74,-7.20,-25.05,6.75,35.46,118.25,
06/01/2021,01:10:12.86,-344.24,-931.15,-109.86,-65.24,-159.09,23.96,-7.20,-25.05,6.75,35.55,118.25,
06/01/2021,01:10:12.86,-339.36,-897.46,-110.84,-66.77,-170.49,28.84,-7.50,-24.00,6.00,35.60,118.25,
06/01/2021,01:10:12.87,-354.49,-877.44,-89.84,-68.17,-176.16,35.24,-5.85,-23.40,6.90,35.55,118.25,
06/01/2021,01:10:12.88,-356.45,-851.07,-107.42,-69.02,-182.74,37.80,-5.85,-23.40,6.90,35.60,118.25,
06/01/2021,01:10:12.89,-387.70,-817.87,-80.08,-69.82,-197.01,47.13,-5.55,-22.65,6.90,35.46,118.25,
06/01/2021,01:10:12.90,-405.76,-780.27,-71.29,-67.99,-198.29,51.10,-5.55,-22.65,6.90,35.36,118.25,
06/01/2021,01:10:12.91,-412.11,-791.02,-58.11,-67.13,-196.34,52.26,-5.55,-22.65,6.90,35.46,118.25,
06/01/2021,01:10:12.91,-420.41,-770.51,-71.29,-65.67,-192.50,51.71,-2.10,-24.15,5.40,35.70,118.25,
06/01/2021,01:10:12.92,-433.11,-770.51,-57.13,-62.56,-191.77,54.57,-2.10,-24.15,5.40,35.46,118.25,
06/01/2021,01:10:12.92,-424.80,-771.48,-63.48,-59.57,-186.22,57.07,-2.10,-24.15,5.40,35.60,118.25,
06/01/2021,01:10:12.94,-434.57,-784.67,-24.41,-46.71,-155.37,52.07,-0.30,-21.90,5.85,35.79,118.25,
06/01/2021,01:10:12.95,-455.08,-789.55,-34.18,-43.66,-142.99,50.67,0.30,-22.65,6.45,35.55,118.25,
06/01/2021,01:10:12.95,-432.62,-800.29,-19.04,-39.09,-130.12,47.93,0.30,-23.40,5.10,35.70,118.25,
06/01/2021,01:10:12.96,-416.50,-796.39,-9.28,-34.88,-114.63,44.63,0.30,-23.40,5.10,35.60,118.25,
06/01/2021,01:10:12.96,-405.76,-803.71,-1.95,-29.27,-102.32,39.39,2.10,-21.90,3.60,35.55,118.25,
06/01/2021,01:10:12.98,-407.23,-799.80,2.93,-18.48,-64.88,24.21,2.10,-19.95,3.60,35.55,118.25,
06/01/2021,01:10:12.98,-396.48,-809.08,10.25,-13.54,-54.27,20.18,2.70,-23.25,5.25,35.60,118.25,
06/01/2021,01:10:12.99,-371.58,-795.41,6.35,-7.32,-41.16,15.18,2.70,-23.25,5.25,35.89,118.25,
06/01/2021,01:10:13.00,-395.02,-796.39,7.81,-4.39,-32.99,8.66,2.70,-23.25,5.25,35.46,118.25,
06/01/2021,01:10:13.00,-385.74,-790.53,-2.44,0.73,-23.41,2.99,3.75,-21.30,5.55,35.60,118.25,
06/01/2021,01:10:13.02,-392.09,-789.55,-22.46,13.41,0.67,-10.18,3.75,-21.30,5.55,35.46,118.25,
06/01/2021,01:10:13.02,-388.67,-770.02,-21.00,15.85,12.87,-13.72,2.70,-22.35,7.35,35.41,118.25,
06/01/2021,01:10:13.03,-373.05,-772.95,-38.57,21.89,17.74,-17.01,3.60,-22.35,7.35,35.55,118.25,
06/01/2021,01:10:13.04,-368.65,-772.46,-55.18,25.00,26.22,-23.41,3.60,-21.00,5.10,35.55,118.25,
06/01/2021,01:10:13.04,-369.63,-765.14,-42.97,28.60,29.27,-25.98,3.00,-22.80,4.50,35.55,118.25,
06/01/2021,01:10:13.06,-366.21,-754.88,-64.94,37.44,38.35,-31.59,4.35,-21.00,5.40,35.55,118.25,
06/01/2021,01:10:13.06,-371.58,-768.55,-84.47,40.37,46.65,-30.30,2.40,-22.35,5.55,35.60,118.25,
06/01/2021,01:10:13.07,-361.82,-775.39,-85.94,43.41,49.88,-31.65,2.40,-22.35,5.55,35.60,118.25,
06/01/2021,01:10:13.08,-368.16,-781.25,-102.54,43.84,52.26,-33.41,2.85,-22.65,5.85,35.70,118.25,
06/01/2021,01:10:13.08,-384.77,-791.99,-125.00,44.15,56.22,-34.39,2.85,-22.65,5.85,35.41,118.25,
06/01/2021,01:10:13.09,-376.95,-785.64,-139.65,49.15,58.23,-32.80,2.85,-22.65,5.85,35.46,118.25,
06/01/2021,01:10:13.10,-375.49,-813.48,-158.69,47.20,71.59,-34.27,1.95,-22.80,5.25,35.41,118.25,
06/01/2021,01:10:13.11,-380.86,-813.96,-180.66,50.06,72.74,-32.99,1.95,-22.80,5.25,35.17,118.25,
06/01/2021,01:10:13.12,-372.56,-821.29,-201.17,49.02,75.24,-33.96,0.15,-24.75,7.05,35.46,118.25,
06/01/2021,01:10:13.12,-371.09,-838.38,-205.08,49.45,75.24,-34.45,0.00,-22.95,4.65,35.46,118.25,
06/01/2021,01:10:13.13,-364.75,-839.84,-196.78,48.66,75.37,-35.24,0.00,-22.95,4.65,35.46,118.25,
06/01/2021,01:10:13.14,-355.96,-864.75,-215.33,45.55,72.50,-36.46,-1.20,-26.25,5.25,35.55,118.25,
06/01/2021,01:10:13.15,-332.03,-881.35,-218.26,43.41,69.82,-35.12,-1.20,-26.25,5.25,35.60,118.25,
06/01/2021,01:10:13.16,-335.45,-897.95,-226.07,43.41,64.57,-36.10,-0.45,-25.80,6.75,35.55,118.25,
06/01/2021,01:10:13.16,-351.07,-906.74,-229.49,41.52,58.84,-38.72,-2.70,-26.25,6.00,35.55,118.25,
06/01/2021,01:10:13.17,-336.43,-924.32,-237.30,37.50,50.61,-41.89,-2.70,-26.25,6.00,35.75,118.25,
06/01/2021,01:10:13.18,-334.47,-940.43,-280.27,37.13,31.40,-41.04,-2.40,-25.80,6.00,35.75,118.25,
06/01/2021,01:10:13.19,-345.70,-940.43,-302.73,32.87,22.62,-44.02,-2.40,-25.80,6.00,35.75,118.25,
06/01/2021,01:10:13.20,-360.84,-952.64,-321.78,30.67,12.74,-45.06,-2.40,-25.80,6.00,35.70,118.25,
06/01/2021,01:10:13.20,-367.68,-966.80,-353.03,29.27,7.44,-43.78,-2.70,-27.00,7.35,35.60,118.25,
06/01/2021,01:10:13.21,-376.46,-954.59,-386.23,26.71,-1.40,-45.55,-2.70,-27.00,7.35,35.60,118.25,
06/01/2021,01:10:13.22,-407.23,-962.40,-397.46,17.20,-33.78,-42.38,-4.05,-27.15,6.90,35.46,118.25,
06/01/2021,01:10:13.23,-404.79,-983.40,-398.93,14.76,-41.04,-42.13,-4.05,-27.15,6.90,35.46,118.25,
06/01/2021,01:10:13.23,-434.57,-1001.46,-391.60,12.01,-50.37,-43.48,-2.70,-28.50,6.75,35.46,118.25,
06/01/2021,01:10:13.24,-458.01,-1061.04,-384.28,12.38,-60.73,-42.32,-3.45,-26.70,7.35,35.46,118.25,
06/01/2021,01:10:13.25,-477.54,-1143.07,-397.95,11.04,-68.11,-38.96,-3.45,-26.70,7.35,35.79,118.25,
06/01/2021,01:10:13.26,-638.18,-1525.39,-471.68,6.59,-65.43,-37.68,-3.60,-28.05,7.65,35.46,118.25,
06/01/2021,01:10:13.27,-689.45,-1687.01,-479.00,1.89,-55.61,-43.84,-3.60,-28.05,7.65,35.70,118.25,
06/01/2021,01:10:13.27,-764.16,-1805.18,-463.38,-0.85,-40.37,-43.96,-4.50,-29.40,7.80,35.60,118.25,
06/01/2021,01:10:13.31,-838.38,-1226.07,-220.21,-31.89,28.23,-20.30,-3.60,-28.80,7.20,35.55,118.25,
06/01/2021,01:10:13.32,-684.08,-984.86,-226.56,-27.87,41.89,19.27,-4.50,-27.75,7.05,35.55,118.25,
06/01/2021,01:10:13.34,-501.95,-896.00,-239.75,-21.10,65.12,50.98,-4.05,-27.60,7.20,35.60,118.25,
06/01/2021,01:10:13.35,-434.57,-902.34,-227.05,-22.38,71.46,59.76,-4.35,-29.55,7.95,35.46,118.25,
06/01/2021,01:10:13.35,-385.25,-931.15,-224.12,-19.88,78.78,65.49,-3.75,-28.50,7.35,35.70,118.25,
06/01/2021,01:10:13.36,-367.68,-959.47,-194.82,-21.40,83.84,71.46,-3.75,-28.50,7.35,35.55,118.25,
06/01/2021,01:10:13.36,-348.14,-998.54,-182.13,-19.21,81.59,76.16,-4.20,-27.75,6.75,35.46,118.25,
06/01/2021,01:10:13.37,-350.10,-1057.62,-176.76,-24.21,80.85,81.83,-4.20,-27.75,6.75,35.75,118.25,
06/01/2021,01:10:13.39,-340.82,-1098.63,-132.81,-31.16,59.51,86.16,-3.75,-28.95,6.75,35.70,118.25,
06/01/2021,01:10:13.39,-368.16,-1091.31,-129.39,-34.63,50.49,81.10,-3.75,-28.95,6.75,35.22,118.25,
06/01/2021,01:10:13.40,-381.35,-1074.71,-112.79,-38.96,40.43,81.34,-3.75,-28.95,6.75,35.55,118.25,
06/01/2021,01:10:13.40,-416.99,-1048.34,-100.10,-41.89,30.00,82.07,-4.20,-28.20,7.35,35.60,118.25,
06/01/2021,01:10:13.41,-424.32,-1042.97,-109.38,-43.11,20.37,82.56,-4.20,-28.20,7.35,35.55,118.25,
06/01/2021,01:10:13.43,-454.59,-1026.86,-110.35,-42.74,0.12,85.12,-5.25,-27.75,7.05,35.70,118.25,
06/01/2021,01:10:13.43,-459.47,-1040.53,-97.17,-45.18,-2.56,81.04,-4.05,-29.85,6.90,35.60,118.25,
06/01/2021,01:10:13.44,-453.12,-1029.79,-81.05,-45.61,-2.26,79.27,-4.05,-29.85,6.90,35.55,118.25,
06/01/2021,01:10:13.44,-450.68,-1040.04,-70.80,-45.85,-4.39,78.96,-3.75,-28.20,7.05,35.70,118.25,
06/01/2021,01:10:13.45,-428.71,-1046.39,-57.62,-44.15,-7.07,77.26,-3.75,-28.20,7.05,35.60,118.25,
06/01/2021,01:10:13.47,-417.48,-1039.06,-41.50,-42.44,-4.57,73.29,-3.60,-28.80,5.40,35.55,118.25,
06/01/2021,01:10:13.47,-409.67,-1035.16,-36.62,-41.89,-3.23,71.89,-2.55,-26.85,6.45,35.46,118.25,
06/01/2021,01:10:13.48,-416.02,-1011.72,-38.09,-42.26,-1.95,69.27,-2.55,-26.85,6.45,35.46,118.25,
06/01/2021,01:10:13.48,-407.71,-1019.53,-39.06,-41.71,4.70,69.39,-2.55,-26.85,6.45,35.60,118.25,
06/01/2021,01:10:13.49,-424.32,-991.21,-44.43,-39.27,7.26,66.34,-2.55,-26.85,6.45,35.60,118.25,
06/01/2021,01:10:13.51,-422.36,-945.31,-34.67,-34.21,21.65,67.87,-0.45,-27.45,5.25,35.55,118.25,
06/01/2021,01:10:13.51,-431.15,-922.36,-32.23,-32.32,26.28,65.12,-0.45,-27.45,5.25,35.70,118.25,
06/01/2021,01:10:13.52,-423.83,-905.27,-19.53,-30.37,32.44,68.41,-2.85,-28.80,5.85,35.55,118.25,
06/01/2021,01:10:13.52,-413.09,-879.39,-8.30,-31.71,39.45,68.11,-1.35,-27.60,5.85,35.46,118.25,
06/01/2021,01:10:13.53,-413.09,-866.21,-12.21,-31.16,42.01,68.66,-1.35,-27.60,5.85,35.41,118.25,
06/01/2021,01:10:13.54,-397.95,-855.47,-9.28,-27.26,49.39,75.12,-1.35,-28.05,6.15,35.75,118.25,
06/01/2021,01:10:13.55,-373.54,-848.63,0.00,-25.49,48.78,71.77,-1.35,-28.05,6.15,35.70,118.25,
06/01/2021,01:10:13.56,-365.72,-860.35,18.07,-26.52,49.15,75.73,-1.35,-28.80,4.65,35.46,118.25,
06/01/2021,01:10:13.56,-344.24,-863.77,-5.86,-24.88,47.56,80.37,-0.60,-28.05,4.65,35.75,118.25,
06/01/2021,01:10:13.57,-356.45,-873.54,21.00,-24.88,44.76,82.80,-0.60,-28.05,4.65,35.46,118.25,
06/01/2021,01:10:13.57,-341.31,-879.39,23.44,-25.73,42.68,87.20,-0.60,-28.05,4.65,35.55,118.25,
06/01/2021,01:10:13.59,-315.43,-907.71,38.09,-27.50,24.82,94.21,-0.15,-26.25,4.50,35.60,118.25,
06/01/2021,01:10:13.60,-312.99,-925.78,38.57,-24.39,22.56,96.04,-0.15,-26.25,4.50,35.46,118.25,
06/01/2021,01:10:13.60,-310.55,-931.15,41.50,-25.67,14.88,98.66,-1.20,-26.70,4.80,35.17,118.25,
06/01/2021,01:10:13.61,-297.85,-937.50,44.92,-26.10,11.46,100.49,-1.20,-26.70,4.80,35.46,118.25,
06/01/2021,01:10:13.61,-297.85,-955.08,35.16,-27.38,2.20,103.35,-1.35,-26.40,5.10,35.60,118.25,
06/01/2021,01:10:13.63,-287.11,-938.48,31.74,-29.02,-14.70,108.72,0.15,-27.75,4.20,35.41,118.25,
06/01/2021,01:10:13.64,-291.99,-955.08,31.25,-29.33,-18.54,107.87,-1.20,-27.00,3.75,35.75,118.25,
06/01/2021,01:10:13.64,-281.25,-947.75,41.99,-29.33,-25.24,112.38,-1.20,-27.00,3.75,35.55,118.25,
06/01/2021,01:10:13.65,-286.62,-945.31,42.97,-26.40,-28.35,111.34,0.15,-27.75,5.55,35.55,118.25,
06/01/2021,01:10:13.65,-275.88,-934.57,14.65,-26.71,-36.71,111.65,1.20,-26.25,3.75,35.46,118.25,
06/01/2021,01:10:13.67,-274.90,-926.27,23.44,-27.32,-45.43,108.35,1.95,-26.70,2.25,35.55,118.25,
06/01/2021,01:10:13.67,-269.04,-930.66,33.69,-23.90,-51.28,109.45,1.20,-26.25,4.80,35.46,118.25,
06/01/2021,01:10:13.68,-273.44,-935.55,29.79,-21.22,-53.96,110.67,1.20,-26.25,4.80,35.70,118.25,
06/01/2021,01:10:13.69,-274.90,-917.97,12.70,-27.32,-55.06,104.70,1.20,-26.25,4.80,35.70,118.25,
06/01/2021,01:10:13.69,-257.81,-918.46,9.77,-24.57,-58.41,106.04,3.45,-24.30,3.00,35.60,118.25,
06/01/2021,01:10:13.71,-265.14,-896.97,-21.97,-18.35,-61.83,94.51,3.45,-24.30,3.00,35.60,118.25,
06/01/2021,01:10:13.71,-282.71,-891.11,-26.37,-16.77,-61.16,89.09,5.10,-24.90,4.35,35.46,118.25,
06/01/2021,01:10:13.72,-267.09,-885.25,-43.95,-17.13,-60.00,84.82,5.10,-24.90,4.35,35.55,118.25,
06/01/2021,01:10:13.73,-274.90,-880.86,-42.48,-15.91,-59.27,79.51,4.35,-26.85,5.10,35.60,118.25,
06/01/2021,01:10:13.73,-264.65,-877.93,-52.73,-15.43,-55.98,74.57,6.75,-26.25,4.80,35.55,118.25,
06/01/2021,01:10:13.74,-250.49,-853.52,-56.64,-14.27,-54.33,67.07,6.75,-26.25,4.80,35.55,118.25,
06/01/2021,01:10:13.75,-251.46,-843.26,-92.29,-12.93,-48.66,47.80,6.90,-24.90,4.65,35.60,118.25,
06/01/2021,01:10:13.76,-251.46,-832.03,-98.14,-9.82,-45.12,40.30,6.90,-24.90,4.65,35.55,118.25,
06/01/2021,01:10:13.77,-260.25,-812.50,-118.65,-11.46,-40.61,32.38,7.95,-25.80,4.80,35.55,118.25,
06/01/2021,01:10:13.77,-248.54,-810.06,-137.21,-9.70,-38.60,23.84,7.95,-25.80,4.80,35.70,118.25,
06/01/2021,01:10:13.78,-263.67,-789.06,-149.41,-8.41,-34.63,14.39,7.95,-25.80,4.80,35.60,118.25,
06/01/2021,01:10:13.82,-244.63,-885.74,-206.54,-1.34,-5.12,-63.60,9.15,-24.90,5.85,35.27,118.25,
06/01/2021,01:10:13.84,-248.54,-1063.96,-183.11,9.02,-3.84,-97.20,8.25,-26.25,4.50,35.36,118.25,
06/01/2021,01:10:13.84,-239.75,-1133.30,-183.59,8.41,-5.06,-115.00,6.60,-25.65,5.40,35.17,118.25,
06/01/2021,01:10:13.85,-271.97,-1185.06,-209.47,9.94,-10.24,-132.07,6.60,-25.65,5.40,35.55,118.25,
06/01/2021,01:10:13.85,-287.11,-1229.00,-227.05,13.54,-14.21,-147.32,8.70,-24.75,4.80,35.27,118.25,
06/01/2021,01:10:13.87,-349.61,-1235.84,-354.00,24.09,-22.26,-184.45,8.70,-24.75,4.80,35.46,118.25,
06/01/2021,01:10:13.88,-370.61,-1241.70,-419.92,27.32,-23.66,-197.32,5.70,-26.70,4.80,35.46,118.25,
06/01/2021,01:10:13.88,-403.81,-1248.54,-506.84,30.00,-21.22,-209.15,5.70,-26.70,4.80,35.46,118.25,
06/01/2021,01:10:13.89,-431.64,-1272.46,-567.87,32.99,-17.62,-217.44,5.70,-26.70,4.80,35.46,118.25,
06/01/2021,01:10:13.89,-471.68,-1281.25,-618.16,36.52,-9.70,-224.63,5.10,-26.10,4.65,35.36,118.25,
06/01/2021,01:10:13.91,-501.46,-1293.95,-676.27,34.88,11.65,-240.43,5.70,-27.45,3.00,35.60,118.25,
06/01/2021,01:10:13.92,-532.23,-1280.76,-671.88,34.21,13.54,-243.05,4.35,-29.85,6.15,35.75,118.25,
06/01/2021,01:10:13.92,-514.65,-1270.02,-682.62,32.20,18.54,-245.37,2.55,-28.05,6.15,35.55,118.25,
06/01/2021,01:10:13.93,-543.95,-1219.73,-652.34,29.39,21.22,-242.68,2.55,-28.05,6.15,35.27,118.25,
06/01/2021,01:10:13.94,-556.15,-1179.69,-603.03,23.17,22.20,-242.56,2.70,-28.20,6.75,35.36,118.25,
06/01/2021,01:10:13.95,-567.87,-1091.31,-522.95,10.37,16.34,-218.54,2.70,-28.20,4.20,35.70,118.25,
06/01/2021,01:10:13.96,-580.08,-1059.08,-465.82,5.73,16.52,-210.91,1.65,-30.45,6.75,35.55,118.25,
06/01/2021,01:10:13.96,-585.94,-1041.50,-403.32,2.44,11.52,-198.48,-0.45,-29.70,4.50,35.75,118.25,
06/01/2021,01:10:13.97,-573.73,-1036.13,-375.00,-2.50,10.79,-186.16,-0.45,-29.70,4.50,35.46,118.25,
06/01/2021,01:10:13.98,-621.58,-1021.48,-333.01,-4.39,8.11,-167.74,-0.45,-29.70,4.50,35.55,118.25,
06/01/2021,01:10:13.99,-621.09,-1026.86,-280.27,-13.11,-1.89,-120.18,0.60,-29.10,3.90,35.60,118.25,
06/01/2021,01:10:14.00,-614.75,-1030.76,-269.04,-16.04,-4.39,-101.28,0.60,-29.10,3.90,35.70,118.25,
06/01/2021,01:10:14.00,-565.43,-1048.34,-250.49,-21.16,-7.99,-82.07,-2.40,-28.20,5.25,35.60,118.25,
06/01/2021,01:10:14.01,-504.88,-1058.59,-234.38,-23.29,-12.07,-65.98,-2.40,-28.20,5.25,35.55,118.25,
06/01/2021,01:10:14.02,-413.09,-1058.11,-212.89,-29.63,-14.70,-52.68,-1.20,-30.15,5.25,35.60,118.25,
06/01/2021,01:10:14.03,-274.90,-1062.99,-161.13,-38.29,-38.54,-26.59,-1.65,-28.95,3.75,35.60,118.25,
06/01/2021,01:10:14.04,-236.33,-1071.78,-139.16,-44.76,-54.27,-20.12,-4.05,-28.05,5.10,35.27,118.25,
06/01/2021,01:10:14.04,-246.58,-1071.29,-133.30,-46.77,-73.48,-10.43,-2.40,-27.45,5.55,35.79,118.25,
06/01/2021,01:10:14.05,-242.68,-1055.18,-117.19,-52.93,-96.40,-3.41,-2.40,-27.45,5.55,35.60,118.25,
06/01/2021,01:10:14.06,-231.45,-1037.60,-150.39,-54.45,-117.44,7.26,-1.05,-28.05,4.65,35.46,118.25,
06/01/2021,01:10:14.07,-286.13,-1011.23,-81.05,-69.09,-176.22,19.33,-1.05,-28.05,4.65,35.70,118.25,
06/01/2021,01:10:14.08,-291.50,-978.52,-73.73,-74.09,-195.24,25.06,0.00,-29.10,5.85,35.36,118.25,
06/01/2021,01:10:14.08,-323.24,-954.59,-59.57,-74.27,-215.37,26.22,0.00,-29.10,5.85,35.60,118.25,
06/01/2021,01:10:14.09,-386.23,-922.36,-43.46,-77.74,-232.62,32.87,0.00,-29.10,5.85,35.55,118.25,
06/01/2021,01:10:14.09,-400.88,-893.55,-61.04,-79.02,-250.37,35.37,1.65,-25.05,4.20,35.41,118.25,
06/01/2021,01:10:14.10,-417.48,-872.07,-57.62,-80.67,-262.38,38.84,1.65,-25.05,4.20,35.46,118.25,
06/01/2021,01:10:14.12,-477.05,-779.79,-34.67,-79.51,-279.57,41.46,4.95,-27.45,3.75,35.46,118.25,
06/01/2021,01:10:14.12,-502.93,-743.65,-51.76,-76.89,-279.76,42.20,4.95,-27.45,3.75,35.55,118.25,
06/01/2021,01:10:14.13,-517.09,-722.66,-50.78,-73.60,-272.99,41.22,6.75,-25.80,4.20,35.60,118.25,
06/01/2021,01:10:14.13,-515.62,-696.78,-54.20,-68.41,-264.33,39.33,7.95,-24.75,4.50,35.55,118.25,
06/01/2021,01:10:14.14,-511.23,-680.66,-64.94,-64.09,-253.29,38.96,7.95,-24.75,4.50,35.60,118.25,
06/01/2021,01:10:14.16,-504.88,-655.76,-74.71,-51.95,-205.06,26.89,10.05,-24.00,2.25,35.36,118.25,
06/01/2021,01:10:14.16,-520.02,-657.71,-84.96,-46.40,-181.89,22.38,10.05,-24.00,2.25,35.60,118.25,
06/01/2021,01:10:14.17,-500.98,-648.93,-98.63,-41.52,-160.91,17.13,11.25,-24.75,4.80,35.46,118.25,
06/01/2021,01:10:14.17,-505.37,-649.90,-86.43,-36.83,-138.54,12.44,11.25,-24.75,4.80,35.55,118.25,
06/01/2021,01:10:14.18,-497.56,-643.07,-86.91,-32.38,-116.46,5.98,11.25,-24.75,4.80,35.70,118.25,
06/01/2021,01:10:14.20,-465.82,-653.81,-76.17,-17.13,-65.30,-5.49,15.15,-25.65,5.40,35.07,118.25,
06/01/2021,01:10:14.20,-450.20,-664.06,-89.84,-14.27,-48.48,-14.70,15.15,-25.65,5.40,35.46,118.25,
06/01/2021,01:10:14.21,-454.10,-641.11,-77.64,-10.06,-29.27,-17.50,14.85,-25.05,7.80,35.55,118.25,
06/01/2021,01:10:14.21,-462.89,-659.67,-83.01,-2.62,-16.22,-20.61,13.50,-24.00,7.05,35.03,118.25,
06/01/2021,01:10:14.22,-440.43,-675.29,-82.03,-0.61,-6.28,-29.27,13.50,-24.00,7.05,35.41,118.25,
06/01/2021,01:10:14.24,-409.18,-696.29,-83.01,10.67,19.33,-36.40,15.90,-24.15,5.40,35.46,118.25,
06/01/2021,01:10:14.24,-402.34,-710.45,-68.85,17.68,22.93,-38.66,15.90,-24.15,5.40,35.70,118.25,
06/01/2021,01:10:14.25,-407.23,-715.82,-80.08,19.21,27.13,-41.71,15.15,-24.60,5.85,35.75,118.25,
06/01/2021,01:10:14.25,-405.27,-738.28,-88.87,24.02,28.54,-42.87,15.15,-24.15,6.15,35.55,118.25,
06/01/2021,01:10:14.26,-416.99,-749.51,-97.66,27.26,28.84,-43.05,15.15,-24.15,6.15,35.60,118.25,
06/01/2021,01:10:14.28,-416.50,-787.60,-116.70,34.76,30.73,-43.41,13.80,-24.75,6.00,35.70,118.25,
06/01/2021,01:10:14.28,-423.34,-795.90,-123.05,33.78,33.90,-41.28,13.80,-24.75,6.00,35.70,118.25,
06/01/2021,01:10:14.29,-421.88,-803.71,-155.27,37.87,34.21,-41.10,13.80,-24.75,6.00,35.55,118.25,
06/01/2021,01:10:14.29,-424.80,-816.41,-133.30,41.16,32.74,-38.90,12.00,-25.05,6.30,35.46,118.25,
06/01/2021,01:10:14.33,-425.29,-923.34,-203.12,45.79,25.24,-22.62,12.90,-26.10,5.40,35.46,118.25,
06/01/2021,01:10:14.35,-435.06,-1053.22,-259.77,49.21,21.16,-9.70,12.30,-27.45,6.00,35.55,118.25,
06/01/2021,01:10:14.36,-460.45,-1051.76,-286.62,47.80,18.96,-7.99,12.30,-27.45,6.00,35.41,118.25,
06/01/2021,01:10:14.37,-444.34,-1092.77,-295.90,47.93,17.26,-4.33,10.80,-28.20,5.25,35.55,118.25,
06/01/2021,01:10:14.37,-456.05,-1093.75,-314.94,48.05,17.44,-0.12,10.80,-28.20,5.25,35.55,118.25,
06/01/2021,01:10:14.38,-456.05,-1091.80,-337.89,45.98,17.26,1.40,10.80,-28.20,5.25,35.46,118.25,
06/01/2021,01:10:14.38,-458.01,-1093.26,-342.77,48.96,15.49,5.37,10.80,-28.20,5.25,35.70,118.25,
06/01/2021,01:10:14.40,-464.84,-1097.17,-407.71,41.71,14.70,12.68,10.35,-27.60,7.20,35.46,118.25,
06/01/2021,01:10:14.41,-484.86,-1109.86,-463.87,37.38,14.39,13.48,9.60,-27.60,6.90,35.46,118.25,
06/01/2021,01:10:14.41,-496.58,-1139.65,-498.05,38.05,14.27,18.90,9.60,-27.60,6.90,35.60,118.25,
06/01/2021,01:10:14.42,-500.98,-1193.36,-520.51,32.32,17.20,19.63,11.55,-28.50,7.05,35.55,118.25,
06/01/2021,01:10:14.42,-468.26,-1281.25,-623.54,31.71,15.30,19.57,11.55,-28.50,7.05,35.60,118.25,
06/01/2021,01:10:14.44,-423.83,-1535.16,-745.12,0.49,-51.46,16.22,12.30,-28.20,6.75,35.55,118.25,
06/01/2021,01:10:14.45,-399.90,-1607.42,-772.46,-8.96,-83.78,19.57,12.30,-28.20,6.75,35.55,118.25,
06/01/2021,01:10:14.45,-416.50,-1593.26,-754.39,-17.80,-101.34,17.26,12.30,-28.20,6.75,35.55,118.25,
06/01/2021,01:10:14.46,-425.78,-1513.67,-732.42,-19.51,-101.22,21.04,10.80,-28.95,7.35,35.46,118.25,
06/01/2021,01:10:14.46,-509.28,-1411.62,-664.55,-25.55,-90.49,14.51,10.80,-28.95,7.35,35.70,118.25,
06/01/2021,01:10:14.48,-603.03,-1129.88,-541.02,-22.32,-47.07,7.99,14.40,-29.10,7.20,35.60,118.25,
06/01/2021,01:10:14.49,-588.38,-1089.84,-471.68,-21.95,-32.87,9.94,14.40,-29.10,7.20,35.36,118.25,
06/01/2021,01:10:14.49,-655.76,-1059.08,-456.54,-17.93,-19.33,19.15,14.40,-29.10,7.20,35.27,118.25,
06/01/2021,01:10:14.50,-634.28,-1051.76,-439.94,-19.02,-5.30,26.46,12.45,-28.80,8.70,35.55,118.25,
06/01/2021,01:10:14.50,-590.82,-1048.83,-427.25,-22.56,6.65,34.51,12.45,-28.80,8.70,35.55,118.25,
06/01/2021,01:10:14.52,-447.75,-1003.91,-322.75,-26.46,33.41,39.76,12.90,-27.60,7.65,35.46,118.25,
06/01/2021,01:10:14.53,-414.55,-964.36,-288.57,-25.24,40.55,39.57,12.75,-28.20,8.55,35.60,118.25,
06/01/2021,01:10:14.53,-399.41,-947.75,-264.65,-28.66,49.21,38.11,12.75,-28.20,8.55,35.55,118.25,
06/01/2021,01:10:14.54,-401.86,-933.11,-242.68,-30.61,50.00,43.41,13.80,-28.20,7.05,35.55,118.25,
06/01/2021,01:10:14.54,-350.59,-942.87,-203.12,-32.20,51.65,47.99,13.80,-28.20,7.05,35.17,118.25,
06/01/2021,01:10:14.56,-324.71,-958.50,-124.51,-42.62,36.16,62.93,13.20,-26.40,7.65,35.70,118.25,
06/01/2021,01:10:14.57,-325.20,-963.87,-113.77,-46.28,27.32,65.18,12.45,-28.05,6.45,35.70,118.25,
06/01/2021,01:10:14.57,-294.43,-971.19,-99.12,-47.87,14.51,70.79,12.45,-28.05,6.45,35.60,118.25,
06/01/2021,01:10:14.58,-290.53,-976.07,-83.01,-52.62,0.85,69.09,12.45,-28.05,6.45,35.70,118.25,
06/01/2021,01:10:14.58,-295.41,-973.63,-63.48,-54.45,-9.76,72.93,12.45,-28.05,6.45,35.60,118.25,
06/01/2021,01:10:14.60,-347.17,-978.52,-52.25,-60.30,-38.60,77.56,13.80,-24.75,6.75,35.60,118.25,
06/01/2021,01:10:14.61,-352.54,-993.65,-62.50,-59.88,-48.60,78.96,13.80,-25.05,6.75,35.46,118.25,
06/01/2021,01:10:14.61,-363.77,-1016.11,-67.38,-64.15,-52.07,76.46,13.80,-25.05,6.75,35.60,118.25,
06/01/2021,01:10:14.62,-359.86,-1024.90,-43.46,-63.29,-54.70,78.72,13.05,-23.55,6.30,35.79,118.25,
06/01/2021,01:10:14.62,-346.68,-1032.71,-50.78,-63.78,-58.05,76.77,13.05,-23.55,6.30,35.46,118.25,
06/01/2021,01:10:14.64,-371.58,-1042.48,-56.64,-67.44,-62.99,73.96,14.85,-23.55,5.25,35.70,118.25,
06/01/2021,01:10:14.65,-361.82,-1050.29,-40.04,-66.52,-65.18,77.20,14.85,-23.55,5.25,35.46,118.25,
06/01/2021,01:10:14.65,-360.35,-1031.74,-31.25,-66.16,-64.39,72.50,14.85,-23.55,5.25,35.46,118.25,
06/01/2021,01:10:14.66,-369.63,-1011.23,-39.55,-63.48,-63.48,73.41,17.85,-25.05,7.35,35.46,118.25,
06/01/2021,01:10:14.66,-365.72,-989.26,-26.86,-64.15,-67.44,72.07,17.85,-25.05,7.35,35.55,118.25,
06/01/2021,01:10:14.67,-343.75,-979.49,-23.93,-61.59,-70.79,71.04,17.85,-25.05,7.35,35.46,118.25,
06/01/2021,01:10:14.69,-355.96,-915.04,-25.88,-54.94,-65.98,71.28,17.55,-23.55,6.00,35.60,118.25,
06/01/2021,01:10:14.69,-365.72,-924.32,-10.25,-54.39,-66.71,69.57,17.55,-23.55,6.00,35.60,118.25,
06/01/2021,01:10:14.70,-363.77,-897.46,-15.14,-51.28,-66.16,69.39,18.30,-22.05,6.30,35.60,118.25,
06/01/2021,01:10:14.70,-371.58,-911.13,-7.81,-49.57,-60.73,72.20,18.30,-22.05,6.30,35.55,118.25,
06/01/2021,01:10:14.71,-374.51,-896.48,5.86,-47.56,-57.99,68.41,20.25,-22.65,5.40,35.75,118.25,
06/01/2021,01:10:14.73,-355.47,-858.89,1.95,-38.35,-47.13,64.51,22.65,-18.60,6.75,35.55,118.25,
06/01/2021,01:10:14.73,-351.07,-857.91,3.42,-34.57,-40.85,66.40,18.30,-20.85,8.10,35.46,118.25,
06/01/2021,01:10:14.74,-344.73,-842.29,0.00,-31.65,-38.54,65.73,18.30,-20.85,8.10,35.55,118.25,
06/01/2021,01:10:14.74,-356.45,-829.59,0.00,-27.93,-32.13,63.84,18.30,-20.85,8.10,35.60,118.25,
06/01/2021,01:10:14.75,-342.29,-844.73,-1.95,-26.40,-25.43,63.96,21.90,-18.15,6.75,35.22,118.25,
06/01/2021,01:10:14.76,-339.36,-846.68,14.65,-21.34,-12.93,56.10,21.90,-18.15,6.75,35.22,118.25,
06/01/2021,01:10:14.77,-319.82,-856.45,9.28,-19.88,-9.15,57.44,21.60,-18.60,7.35,35.75,118.25,
06/01/2021,01:10:14.78,-323.73,-852.05,9.77,-16.59,-7.13,51.65,21.90,-18.90,8.85,35.60,118.25,
06/01/2021,01:10:14.78,-304.20,-836.91,11.23,-17.32,-4.45,51.34,21.90,-18.90,8.85,35.55,118.25,
06/01/2021,01:10:14.79,-310.55,-840.33,16.60,-16.10,-1.71,46.04,23.25,-19.20,7.65,35.46,118.25,
06/01/2021,01:10:14.83,-257.32,-817.38,-1.95,-9.82,-5.73,18.29,21.90,-17.85,7.35,35.46,118.25,
06/01/2021,01:10:14.85,-240.72,-797.85,-5.37,-12.20,-14.51,10.67,21.45,-18.45,9.00,35.55,118.25,
06/01/2021,01:10:14.85,-258.30,-804.20,-10.25,-11.52,-18.29,6.28,21.45,-18.45,9.00,35.75,118.25,
06/01/2021,01:10:14.86,-250.49,-784.18,-7.32,-11.34,-22.99,3.54,23.25,-16.80,8.40,35.27,118.25,
06/01/2021,01:10:14.87,-246.58,-782.23,-22.46,-11.04,-28.05,-0.37,23.25,-16.80,8.40,35.55,118.25,
06/01/2021,01:10:14.87,-242.68,-783.69,-8.30,-10.85,-28.96,-4.15,23.25,-16.80,8.40,35.55,118.25,
06/01/2021,01:10:14.89,-258.79,-792.48,-31.74,-11.22,-38.90,-17.80,21.00,-18.00,7.65,35.55,118.25,
06/01/2021,01:10:14.89,-269.53,-784.67,-39.06,-10.73,-38.90,-21.46,21.00,-18.00,7.65,35.55,118.25,
06/01/2021,01:10:14.90,-269.53,-802.73,-23.93,-8.72,-43.05,-25.18,21.90,-17.85,9.30,35.46,118.25,
06/01/2021,01:10:14.91,-278.81,-796.88,-32.23,-8.17,-45.91,-31.59,23.25,-17.55,8.70,35.41,118.25,
06/01/2021,01:10:14.91,-290.53,-818.36,-55.18,-8.29,-51.28,-37.13,23.25,-17.55,8.70,35.70,118.25,
06/01/2021,01:10:14.93,-277.34,-854.49,-51.76,-6.95,-53.90,-50.24,23.40,-18.90,7.35,35.55,118.25,
06/01/2021,01:10:14.93,-291.99,-865.23,-61.04,-9.02,-56.95,-56.34,23.40,-18.90,7.35,35.55,118.25,
06/01/2021,01:10:14.94,-312.01,-868.65,-69.82,-8.29,-55.37,-60.67,23.40,-18.90,7.35,35.60,118.25,
06/01/2021,01:10:14.95,-302.73,-894.04,-81.05,-6.28,-55.12,-67.87,22.65,-17.10,8.85,35.46,118.25,
06/01/2021,01:10:14.95,-313.96,-901.86,-78.12,-8.35,-57.13,-70.43,22.65,-17.10,8.85,35.55,118.25,
06/01/2021,01:10:14.97,-342.29,-934.57,-89.36,-8.17,-53.66,-86.89,23.70,-19.50,10.50,35.60,118.25,
06/01/2021,01:10:14.97,-357.91,-948.24,-89.36,-6.77,-55.43,-94.39,23.70,-19.50,10.50,35.70,118.25,
06/01/2021,01:10:14.98,-352.54,-952.15,-75.20,-7.01,-53.23,-99.21,24.30,-21.45,10.20,35.36,118.25,
06/01/2021,01:10:14.99,-370.12,-956.54,-84.96,-4.88,-52.38,-102.20,24.15,-19.65,9.60,35.46,118.25,
06/01/2021,01:10:14.99,-381.35,-988.28,-103.52,-5.06,-50.18,-106.95,24.15,-19.65,9.60,35.36,118.25,
06/01/2021,01:10:15.01,-389.16,-1045.90,-99.61,-3.54,-46.16,-119.70,24.30,-19.95,9.75,35.60,118.25,
06/01/2021,01:10:15.01,-398.93,-1069.82,-119.14,-3.66,-44.33,-127.38,24.30,-19.95,9.75,35.55,118.25,
06/01/2021,01:10:15.02,-416.99,-1095.21,-121.58,-1.22,-38.54,-130.30,25.05,-19.50,11.25,35.55,118.25,
06/01/2021,01:10:15.03,-413.09,-1125.98,-118.65,-2.13,-36.77,-135.12,25.05,-19.50,11.25,35.60,118.25,
06/01/2021,01:10:15.03,-433.11,-1180.18,-113.77,-0.67,-34.94,-138.54,25.05,-19.50,11.25,35.60,118.25,
06/01/2021,01:10:15.05,-463.38,-1375.00,-103.52,3.54,-32.38,-155.43,24.75,-21.90,9.00,35.55,118.25,
06/01/2021,01:10:15.06,-494.63,-1446.29,-104.98,1.22,-31.52,-159.94,24.75,-21.90,9.00,35.36,118.25,
06/01/2021,01:10:15.06,-513.18,-1510.25,-87.40,3.17,-30.18,-165.06,23.10,-22.05,12.15,35.46,118.25,
06/01/2021,01:10:15.07,-538.57,-1546.88,-94.73,2.32,-32.80,-168.84,23.40,-24.00,11.10,35.41,118.25,
06/01/2021,01:10:15.07,-590.82,-1542.48,-105.47,6.10,-32.38,-169.57,23.40,-24.00,11.10,35.55,118.25,
06/01/2021,01:10:15.09,-606.93,-1400.39,-148.93,6.16,-30.73,-167.56,21.90,-25.05,11.40,35.55,118.25,
06/01/2021,01:10:15.10,-609.38,-1331.54,-186.04,6.10,-26.83,-167.01,21.90,-25.05,11.40,35.70,118.25,
06/01/2021,01:10:15.10,-627.93,-1275.88,-221.68,6.46,-27.80,-162.50,22.50,-25.65,13.50,35.46,118.25,
06/01/2021,01:10:15.11,-610.84,-1248.05,-229.00,9.45,-20.00,-158.05,20.25,-26.85,11.70,35.46,118.25,
06/01/2021,01:10:15.11,-625.49,-1234.86,-259.77,11.83,-15.37,-152.80,20.25,-26.85,11.70,35.55,118.25,
06/01/2021,01:10:15.13,-635.74,-1187.99,-296.88,12.68,-3.90,-131.77,20.55,-27.75,11.10,35.55,118.25,
06/01/2021,01:10:15.14,-628.42,-1152.34,-305.66,10.55,0.37,-123.84,20.55,-27.75,11.10,35.55,118.25,
06/01/2021,01:10:15.14,-626.46,-1116.70,-304.69,11.22,4.39,-115.30,20.55,-27.75,11.10,35.60,118.25,
06/01/2021,01:10:15.15,-628.42,-1052.25,-292.97,11.16,7.74,-106.59,20.70,-29.10,10.95,35.55,118.25,
06/01/2021,01:10:15.15,-610.84,-1001.95,-295.41,9.51,9.33,-97.56,20.70,-29.10,10.95,35.46,118.25,
06/01/2021,01:10:15.17,-580.57,-883.79,-275.88,7.20,10.00,-73.48,17.85,-29.70,13.20,35.22,118.25,
06/01/2021,01:10:15.18,-560.55,-859.38,-287.11,7.01,12.44,-64.70,17.85,-29.70,13.20,35.46,118.25,
06/01/2021,01:10:15.18,-555.18,-834.47,-279.30,5.00,12.93,-54.70,17.85,-29.40,11.40,35.60,118.25,
06/01/2021,01:10:15.19,-510.74,-818.85,-288.09,3.23,11.71,-48.05,18.60,-29.40,11.85,35.36,118.25,
06/01/2021,01:10:15.19,-503.42,-831.54,-272.95,0.73,8.41,-35.06,18.60,-29.40,11.85,35.60,118.25,
06/01/2021,01:10:15.21,-480.47,-852.05,-259.28,-5.30,-2.07,-18.41,18.60,-28.95,11.10,35.70,118.25,
06/01/2021,01:10:15.22,-473.14,-855.47,-245.61,-10.79,-7.50,-9.63,18.60,-28.95,11.10,35.75,118.25,
06/01/2021,01:10:15.22,-430.18,-867.68,-233.89,-11.71,-13.05,-1.83,18.45,-31.80,12.30,35.55,118.25,
06/01/2021,01:10:15.23,-429.20,-877.93,-217.29,-12.38,-19.82,2.87,18.45,-31.80,12.30,35.55,118.25,
06/01/2021,01:10:15.23,-406.74,-883.79,-214.84,-18.05,-28.41,10.30,18.45,-31.80,12.30,35.60,118.25,
06/01/2021,01:10:15.25,-392.09,-906.25,-186.52,-24.88,-55.06,22.38,19.80,-30.45,10.05,35.70,118.25,
06/01/2021,01:10:15.26,-406.25,-917.48,-191.89,-28.90,-62.99,27.50,19.80,-30.45,10.05,35.60,118.25,
06/01/2021,01:10:15.26,-407.71,-912.11,-182.62,-32.62,-71.10,31.46,18.30,-31.65,12.15,35.60,118.25,
06/01/2021,01:10:15.27,-410.16,-920.41,-196.29,-31.04,-76.95,38.17,19.20,-29.85,12.30,35.46,118.25,
06/01/2021,01:10:15.27,-406.74,-900.88,-189.94,-34.82,-83.72,43.54,19.20,-29.85,12.30,35.55,118.25,
06/01/2021,01:10:15.28,-415.53,-924.32,-207.03,-32.68,-87.80,48.23,20.25,-28.80,10.95,35.36,118.25,
06/01/2021,01:10:15.30,-432.62,-908.20,-201.17,-37.80,-90.06,58.66,21.45,-28.80,10.50,35.55,118.25,
06/01/2021,01:10:15.30,-431.15,-909.67,-208.50,-37.62,-89.45,64.63,19.05,-29.40,11.85,35.60,118.25,
06/01/2021,01:10:15.31,-433.59,-905.27,-206.05,-37.13,-87.68,65.55,20.55,-28.20,11.85,35.46,118.25,
06/01/2021,01:10:15.34,-414.55,-886.72,-178.71,-36.40,-78.29,87.13,21.90,-29.40,13.20,35.75,118.25,
06/01/2021,01:10:15.36,-397.46,-897.46,-154.79,-29.51,-70.79,97.56,20.70,-28.05,13.05,35.60,118.25,
06/01/2021,01:10:15.37,-373.05,-879.39,-155.27,-27.68,-62.87,98.84,23.40,-26.25,14.70,35.70,118.25,
06/01/2021,01:10:15.38,-362.30,-881.84,-158.69,-26.34,-60.67,104.21,24.75,-24.60,13.80,35.55,118.25,
06/01/2021,01:10:15.39,-362.30,-876.46,-150.39,-22.99,-57.93,103.60,24.75,-24.60,13.80,35.70,118.25,
06/01/2021,01:10:15.39,-357.91,-876.46,-168.46,-24.51,-53.90,105.37,25.50,-26.10,13.80,35.79,118.25,
06/01/2021,01:10:15.40,-340.33,-877.93,-154.30,-21.89,-48.84,106.59,25.65,-24.30,13.20,35.60,118.25,
06/01/2021,01:10:15.41,-334.96,-872.56,-184.08,-17.50,-40.00,101.46,27.30,-24.60,15.60,35.60,118.25,
06/01/2021,01:10:15.42,-321.29,-876.46,-182.62,-17.20,-37.68,100.73,26.10,-23.55,15.15,35.55,118.25,
06/01/2021,01:10:15.43,-324.71,-875.49,-191.89,-12.87,-39.63,97.80,26.10,-23.55,15.15,35.46,118.25,
06/01/2021,01:10:15.43,-320.80,-880.37,-179.20,-14.82,-36.83,95.12,26.10,-23.55,15.15,35.70,118.25,
06/01/2021,01:10:15.44,-338.87,-883.79,-180.66,-10.12,-34.09,95.91,27.45,-23.25,14.70,35.79,118.25,
06/01/2021,01:10:15.45,-309.57,-881.35,-189.94,-5.24,-28.23,88.54,27.45,-23.25,14.70,35.55,118.25,
06/01/2021,01:10:15.46,-324.22,-892.09,-208.01,-8.17,-28.35,80.79,27.30,-21.45,16.80,35.70,118.25,
06/01/2021,01:10:15.47,-315.92,-879.39,-215.82,-4.94,-25.85,80.85,27.30,-21.45,16.80,35.60,118.25,
06/01/2021,01:10:15.47,-325.68,-875.98,-227.05,-2.13,-21.16,75.98,26.25,-22.65,16.05,35.36,118.25,
06/01/2021,01:10:15.48,-323.73,-878.91,-223.14,-1.34,-19.94,73.96,28.80,-20.25,14.85,35.75,118.25,
06/01/2021,01:10:15.49,-306.15,-880.37,-255.37,1.71,-9.45,66.95,28.95,-22.05,15.90,35.46,118.25,
06/01/2021,01:10:15.50,-322.75,-855.96,-261.23,2.74,-5.79,66.34,28.50,-20.70,16.80,35.79,118.25,
06/01/2021,01:10:15.51,-313.48,-867.68,-274.90,4.51,-0.85,63.23,28.50,-20.70,16.80,35.60,118.25,
06/01/2021,01:10:15.51,-304.69,-863.28,-285.16,3.78,5.91,59.63,30.15,-20.55,16.20,35.46,118.25,
06/01/2021,01:10:15.52,-307.13,-854.98,-297.36,5.98,11.40,56.95,30.15,-20.55,16.20,35.70,118.25,
06/01/2021,01:10:15.53,-292.48,-855.96,-300.78,11.10,18.48,51.40,30.15,-20.55,16.95,35.41,118.25,
06/01/2021,01:10:15.54,-269.53,-854.00,-299.32,7.50,22.01,46.83,30.15,-20.55,16.95,35.55,118.25,
06/01/2021,01:10:15.55,-271.48,-862.30,-308.11,8.84,26.34,44.82,30.15,-20.55,16.95,35.75,118.25,
06/01/2021,01:10:15.55,-275.39,-856.93,-320.31,5.55,30.00,41.83,29.55,-19.20,15.60,35.75,118.25,
06/01/2021,01:10:15.56,-270.51,-873.54,-329.10,9.33,32.80,41.34,29.55,-19.20,15.60,35.60,118.25,
06/01/2021,01:10:15.57,-243.65,-890.14,-332.03,6.04,34.70,32.07,29.70,-19.65,15.15,35.55,118.25,
06/01/2021,01:10:15.58,-242.68,-905.76,-331.05,4.76,34.76,27.93,28.80,-19.95,15.30,35.60,118.25,
06/01/2021,01:10:15.58,-241.70,-912.11,-335.45,5.79,32.80,23.54,28.80,-19.95,15.30,35.55,118.25,
06/01/2021,01:10:15.59,-245.61,-925.29,-343.75,2.93,32.32,18.84,29.85,-18.75,14.85,35.55,118.25,
06/01/2021,01:10:15.60,-223.14,-934.08,-329.10,2.26,31.16,16.89,29.85,-18.75,14.85,35.60,118.25,
06/01/2021,01:10:15.61,-218.26,-970.70,-304.69,0.79,17.87,6.77,28.95,-18.60,15.90,35.07,118.25,
06/01/2021,01:10:15.62,-202.15,-979.49,-310.55,-1.83,14.02,-0.55,28.65,-18.90,14.40,35.22,118.25,
06/01/2021,01:10:15.62,-203.61,-979.49,-315.92,-1.16,8.35,-4.21,28.65,-18.90,14.40,35.70,118.25,
06/01/2021,01:10:15.63,-208.50,-968.26,-309.08,-0.67,-0.73,-5.49,28.65,-18.90,14.40,35.55,118.25,
06/01/2021,01:10:15.64,-215.33,-977.05,-313.96,-2.20,-5.98,-10.06,28.65,-18.90,14.40,35.46,118.25,
06/01/2021,01:10:15.64,-210.94,-978.03,-332.52,-2.80,-14.94,-14.76,30.60,-17.55,12.30,35.79,118.25,
06/01/2021,01:10:15.66,-214.36,-1019.04,-324.22,-4.21,-33.48,-29.63,29.25,-19.50,15.60,35.60,118.25,
06/01/2021,01:10:15.66,-212.40,-1072.27,-326.17,-5.18,-40.91,-34.88,29.25,-19.50,15.60,35.79,118.25,
06/01/2021,01:10:15.67,-245.61,-1148.93,-332.03,-4.88,-44.45,-41.22,27.45,-20.85,13.95,35.55,118.25,
06/01/2021,01:10:15.68,-270.02,-1234.86,-322.75,-4.51,-46.71,-48.90,27.45,-20.85,13.95,35.60,118.25,
06/01/2021,01:10:15.68,-268.55,-1321.29,-342.77,-6.40,-51.52,-56.52,30.15,-20.10,15.15,35.17,118.25,
06/01/2021,01:10:15.70,-355.96,-1483.40,-325.68,-15.24,-58.41,-80.98,30.30,-20.25,15.30,35.70,118.25,
06/01/2021,01:10:15.70,-403.81,-1485.84,-311.52,-19.21,-58.66,-86.59,30.30,-20.25,15.30,35.46,118.25,
06/01/2021,01:10:15.71,-415.04,-1468.26,-325.68,-26.46,-60.98,-96.52,29.40,-21.30,16.20,35.17,118.25,
06/01/2021,01:10:15.72,-440.43,-1400.88,-297.85,-31.89,-62.93,-98.29,29.40,-21.30,16.20,35.75,118.25,
06/01/2021,01:10:15.72,-456.54,-1302.73,-294.43,-34.70,-63.90,-102.07,29.40,-21.30,16.20,35.27,118.25,
06/01/2021,01:10:15.74,-450.68,-1100.10,-284.18,-40.98,-67.80,-95.06,30.30,-22.20,14.55,35.55,118.25,
06/01/2021,01:10:15.75,-446.78,-1033.20,-276.37,-44.15,-67.99,-87.56,30.30,-22.20,14.55,35.46,118.25,
06/01/2021,01:10:15.75,-439.94,-976.07,-254.39,-44.15,-65.98,-80.00,28.20,-20.85,18.00,35.46,118.25,
06/01/2021,01:10:15.76,-416.02,-937.01,-255.86,-48.72,-65.98,-72.56,28.20,-20.85,18.00,35.60,118.25,
06/01/2021,01:10:15.76,-419.92,-910.64,-250.98,-47.56,-67.99,-65.98,30.30,-23.40,17.10,35.55,118.25,
06/01/2021,01:10:15.78,-406.74,-921.88,-225.59,-49.39,-59.09,-43.17,29.85,-22.95,17.55,35.55,118.25,
06/01/2021,01:10:15.79,-375.98,-969.24,-203.12,-49.51,-56.04,-37.68,29.85,-22.95,17.55,35.17,118.25,
06/01/2021,01:10:15.79,-379.88,-1009.28,-192.87,-50.18,-50.06,-31.89,29.70,-23.55,18.45,35.60,118.25,
06/01/2021,01:10:15.80,-369.14,-1064.45,-184.08,-54.39,-49.33,-30.18,29.70,-23.55,18.45,35.55,118.25,
06/01/2021,01:10:15.80,-381.35,-1104.49,-161.62,-55.91,-46.65,-25.73,30.30,-21.90,17.55,35.07,118.25,
06/01/2021,01:10:15.87,-346.68,-1136.23,18.07,-80.85,-117.62,21.65,30.15,-23.55,19.50,35.55,118.25,
06/01/2021,01:10:15.88,-358.89,-1098.63,23.44,-80.18,-134.63,31.16,31.35,-22.20,18.60,35.46,118.25,
06/01/2021,01:10:15.89,-356.45,-1061.52,21.48,-81.34,-137.44,34.51,30.15,-23.55,19.80,35.60,118.25,
06/01/2021,01:10:15.90,-375.49,-1047.36,-0.98,-79.70,-138.05,36.28,30.15,-23.55,19.80,35.55,118.25,
06/01/2021,01:10:15.90,-374.02,-1011.72,0.98,-80.06,-141.22,38.23,32.10,-22.20,21.90,35.55,118.25,
06/01/2021,01:10:15.92,-398.93,-920.90,-27.83,-71.77,-133.11,44.57,31.95,-20.10,19.80,35.70,118.25,
06/01/2021,01:10:15.92,-390.62,-883.79,-45.41,-68.90,-129.57,44.82,31.95,-20.10,19.80,35.60,118.25,
06/01/2021,01:10:15.93,-405.27,-850.10,-50.78,-67.44,-123.23,45.00,33.00,-20.10,21.00,35.75,118.25,
06/01/2021,01:10:15.94,-398.93,-841.31,-47.36,-65.85,-115.73,43.96,33.00,-20.10,21.00,35.60,118.25,
06/01/2021,01:10:15.94,-408.69,-831.05,-65.92,-62.87,-106.83,44.94,33.00,-20.10,21.00,35.36,118.25,
06/01/2021,01:10:15.96,-390.62,-818.36,-64.94,-56.65,-84.21,49.33,33.45,-19.65,22.80,35.55,118.25,
06/01/2021,01:10:15.96,-384.28,-809.08,-57.62,-53.84,-76.34,46.65,33.75,-19.35,24.90,35.60,118.25,
06/01/2021,01:10:15.97,-378.42,-817.87,-58.59,-52.99,-66.16,46.04,33.45,-19.65,25.35,35.46,118.25,
06/01/2021,01:10:15.98,-362.79,-834.96,-58.11,-54.15,-59.02,48.60,33.45,-19.65,25.35,35.46,118.25,
06/01/2021,01:10:15.98,-367.68,-840.82,-46.39,-51.71,-52.93,46.40,34.80,-18.45,23.70,35.55,118.25,
06/01/2021,01:10:16.00,-327.64,-862.30,-30.27,-50.85,-43.90,42.38,36.15,-16.80,24.00,35.55,118.25,
06/01/2021,01:10:16.00,-293.95,-876.46,-50.29,-51.40,-41.40,45.00,33.45,-17.85,23.85,35.36,118.25,
06/01/2021,01:10:16.01,-292.97,-869.14,-39.06,-51.10,-42.50,45.37,33.45,-17.85,23.85,35.46,118.25,
06/01/2021,01:10:16.02,-286.62,-885.25,-24.90,-49.94,-41.83,42.87,33.45,-17.85,23.85,35.55,118.25,
06/01/2021,01:10:16.02,-271.97,-894.04,-32.23,-53.35,-44.82,44.57,35.25,-17.10,24.60,35.55,118.25,
06/01/2021,01:10:16.04,-253.91,-909.18,-39.55,-55.61,-53.54,37.93,35.25,-17.10,24.60,35.55,118.25,
06/01/2021,01:10:16.04,-251.46,-907.71,-21.97,-55.18,-57.93,37.62,34.50,-17.85,26.85,35.55,118.25,
06/01/2021,01:10:16.05,-245.12,-898.44,-25.88,-57.93,-63.41,33.72,34.05,-15.30,27.00,35.70,118.25,
06/01/2021,01:10:16.06,-240.72,-900.39,-17.09,-60.91,-70.12,31.59,34.05,-15.30,27.00,35.55,118.25,
06/01/2021,01:10:16.06,-233.40,-896.97,-31.25,-62.38,-75.98,27.20,35.55,-15.30,27.00,35.75,118.25,
06/01/2021,01:10:16.08,-245.61,-880.86,-24.90,-62.26,-96.16,19.76,35.70,-15.90,26.10,35.07,118.25,
06/01/2021,01:10:16.08,-231.93,-876.46,-35.16,-63.72,-98.90,18.05,34.95,-15.90,27.15,35.89,118.25,
06/01/2021,01:10:16.09,-231.93,-861.82,-37.11,-64.88,-108.29,14.63,36.00,-15.90,27.90,35.75,118.25,
06/01/2021,01:10:16.10,-228.52,-868.16,-35.64,-63.41,-115.12,11.59,36.00,-15.90,27.90,35.55,118.25,
06/01/2021,01:10:16.10,-256.35,-864.75,-41.99,-65.18,-117.32,8.11,36.00,-15.90,27.90,35.55,118.25,
06/01/2021,01:10:16.12,-273.44,-871.09,-65.43,-65.00,-124.82,-2.26,36.00,-13.95,26.40,35.46,118.25,
06/01/2021,01:10:16.13,-283.69,-877.44,-61.04,-66.10,-124.82,-7.50,36.00,-13.95,26.40,35.60,118.25,
06/01/2021,01:10:16.13,-291.50,-879.39,-65.43,-62.01,-126.83,-12.80,35.85,-15.75,29.85,35.55,118.25,
06/01/2021,01:10:16.14,-292.97,-879.88,-64.45,-64.02,-123.41,-18.05,35.85,-15.75,29.85,35.36,118.25,
06/01/2021,01:10:16.14,-303.71,-884.77,-63.48,-62.99,-123.35,-23.29,36.15,-15.75,31.80,35.75,118.25,
06/01/2021,01:10:16.16,-321.29,-905.27,-69.82,-58.84,-120.00,-36.10,36.90,-14.85,29.85,35.41,118.25,
06/01/2021,01:10:16.17,-324.22,-935.06,-72.75,-58.48,-118.35,-42.07,36.60,-17.25,32.40,35.60,118.25,
06/01/2021,01:10:16.17,-313.96,-946.78,-96.19,-59.51,-115.85,-46.16,36.60,-16.05,32.10,35.89,118.25,
06/01/2021,01:10:16.18,-317.87,-946.29,-87.40,-58.78,-112.07,-54.15,36.60,-16.05,32.10,35.55,118.25,
06/01/2021,01:10:16.18,-318.85,-967.77,-108.40,-56.71,-111.46,-59.15,36.60,-16.50,33.15,35.60,118.25,
06/01/2021,01:10:16.20,-339.36,-971.68,-130.37,-53.72,-107.87,-73.96,35.70,-16.65,34.50,35.70,118.25,
06/01/2021,01:10:16.21,-340.33,-979.00,-126.95,-56.77,-105.06,-80.00,35.70,-16.65,34.50,35.60,118.25,
06/01/2021,01:10:16.21,-329.59,-958.50,-136.72,-55.30,-104.09,-83.78,35.70,-16.65,34.50,35.70,118.25,
06/01/2021,01:10:16.22,-344.24,-967.29,-136.72,-55.98,-106.52,-86.16,35.70,-16.65,34.50,35.46,118.25,
06/01/2021,01:10:16.22,-345.21,-963.38,-129.88,-58.29,-102.50,-93.66,35.10,-16.80,35.70,35.55,118.25,
06/01/2021,01:10:16.24,-346.19,-970.70,-162.11,-57.87,-103.96,-101.28,34.20,-19.35,36.30,35.60,118.25,
06/01/2021,01:10:16.25,-355.96,-965.82,-154.30,-59.45,-103.66,-103.23,34.20,-19.35,36.30,35.07,118.25,
06/01/2021,01:10:16.25,-350.59,-990.72,-147.95,-60.12,-102.13,-108.35,34.50,-18.90,38.10,35.41,118.25,
06/01/2021,01:10:16.26,-362.79,-1032.71,-154.30,-60.79,-102.80,-112.68,34.50,-18.90,38.10,35.60,118.25,
06/01/2021,01:10:16.27,-373.05,-1063.96,-136.72,-62.20,-100.06,-116.77,32.55,-20.70,39.00,35.41,118.25,
06/01/2021,01:10:16.28,-369.14,-1220.70,-71.29,-64.02,-108.41,-126.34,32.70,-21.60,37.80,35.60,118.25,
06/01/2021,01:10:16.29,-392.09,-1274.41,-77.64,-63.11,-112.13,-129.51,32.70,-21.60,37.80,35.55,118.25,
06/01/2021,01:10:16.29,-396.48,-1351.56,-61.52,-65.85,-115.37,-134.76,32.85,-21.90,40.20,35.70,118.25,
06/01/2021,01:10:16.30,-407.23,-1393.55,-41.50,-66.71,-124.21,-137.80,32.85,-21.90,40.20,35.55,118.25,
06/01/2021,01:10:16.31,-437.01,-1427.73,-39.06,-69.09,-125.61,-141.16,32.85,-21.90,40.20,35.60,118.25,
06/01/2021,01:10:16.32,-481.93,-1422.36,-39.55,-68.78,-137.26,-141.16,32.10,-24.15,37.95,35.60,118.25,
06/01/2021,01:10:16.36,-523.44,-1226.56,-131.84,-64.63,-152.80,-111.16,28.20,-27.75,41.10,35.46,118.25,
06/01/2021,01:10:16.37,-510.25,-1067.87,-153.32,-69.94,-146.40,-94.82,26.40,-30.15,44.70,35.60,118.25,
06/01/2021,01:10:16.38,-493.16,-979.49,-158.69,-65.79,-143.05,-86.95,26.40,-30.15,44.70,35.60,118.25,
06/01/2021,01:10:16.38,-454.10,-890.14,-152.83,-66.46,-136.52,-78.54,24.90,-29.40,43.95,35.55,118.25,
06/01/2021,01:10:16.40,-430.18,-747.56,-137.70,-64.15,-122.87,-53.48,24.90,-29.40,43.95,35.36,118.25,
06/01/2021,01:10:16.41,-410.64,-741.70,-131.84,-60.98,-120.49,-44.39,24.00,-31.80,46.80,35.46,118.25,
06/01/2021,01:10:16.41,-390.14,-765.62,-93.26,-57.99,-113.35,-38.41,24.00,-31.80,46.80,35.79,118.25,
06/01/2021,01:10:16.42,-380.86,-820.80,-75.68,-61.34,-112.38,-30.67,24.00,-31.80,46.80,35.46,118.25,
06/01/2021,01:10:16.42,-373.54,-879.88,-54.69,-62.01,-109.76,-25.85,21.45,-30.30,45.30,35.75,118.25,
06/01/2021,01:10:16.44,-352.54,-1020.51,-17.58,-64.94,-123.48,-13.05,23.10,-30.15,43.20,35.75,118.25,
06/01/2021,01:10:16.45,-366.70,-1041.02,10.74,-66.40,-126.46,-11.77,21.00,-31.05,46.35,35.55,118.25,
06/01/2021,01:10:16.45,-343.26,-1046.39,24.41,-71.77,-134.09,-12.68,22.50,-31.80,45.30,35.22,118.25,
06/01/2021,01:10:16.46,-363.28,-1052.73,29.30,-70.91,-140.24,-11.10,22.50,-31.80,45.30,35.60,118.25,
06/01/2021,01:10:16.46,-338.87,-1028.32,40.53,-73.11,-145.43,-11.65,21.45,-30.75,47.40,35.36,118.25,
06/01/2021,01:10:16.48,-354.00,-978.52,53.71,-73.66,-162.38,-12.80,23.40,-33.15,46.20,35.60,118.25,
06/01/2021,01:10:16.49,-350.59,-968.75,55.66,-74.51,-169.21,-12.44,21.15,-31.65,46.95,35.46,118.25,
06/01/2021,01:10:16.49,-379.88,-958.01,55.18,-73.84,-174.27,-9.57,21.00,-34.50,46.35,35.17,118.25,
06/01/2021,01:10:16.50,-366.70,-952.64,44.92,-73.90,-178.72,-8.66,21.00,-34.50,46.35,35.60,118.25,
06/01/2021,01:10:16.50,-375.49,-937.50,45.41,-71.04,-183.29,-12.32,21.00,-34.50,46.35,35.70,118.25,
06/01/2021,01:10:16.52,-381.35,-887.70,17.09,-66.40,-186.77,-15.06,19.50,-32.55,47.40,35.46,118.25,
06/01/2021,01:10:16.53,-382.32,-854.98,19.04,-62.68,-183.23,-13.29,19.50,-32.55,47.40,35.55,118.25,
06/01/2021,01:10:16.53,-393.55,-831.54,21.00,-61.89,-183.35,-13.41,17.85,-32.40,49.50,35.60,118.25,
06/01/2021,01:10:16.54,-394.53,-819.82,19.04,-56.77,-182.50,-13.84,17.85,-32.40,49.50,35.60,118.25,
06/01/2021,01:10:16.54,-396.48,-812.01,5.86,-51.71,-174.39,-14.21,16.80,-33.90,49.80,35.60,118.25,
06/01/2021,01:10:16.56,-421.39,-779.79,-40.04,-43.23,-157.32,-11.22,18.30,-32.85,48.30,35.22,118.25,
06/01/2021,01:10:16.57,-416.99,-779.30,-45.41,-39.33,-150.61,-12.62,14.55,-35.55,50.55,35.75,118.25,
06/01/2021,01:10:16.57,-424.32,-765.62,-52.73,-36.71,-138.48,-12.13,13.95,-32.55,49.65,35.55,118.25,
06/01/2021,01:10:16.58,-429.69,-758.30,-66.89,-34.51,-132.80,-9.09,13.95,-32.55,49.65,35.70,118.25,
06/01/2021,01:10:16.58,-417.97,-744.14,-74.22,-30.49,-121.34,-11.40,12.45,-34.20,48.60,35.27,118.25,
06/01/2021,01:10:16.60,-391.60,-741.70,-90.82,-23.84,-104.15,-9.57,12.45,-34.20,48.60,35.55,118.25,
06/01/2021,01:10:16.61,-390.14,-746.09,-87.40,-20.79,-97.93,-11.59,13.05,-37.05,52.05,35.60,118.25,
06/01/2021,01:10:16.61,-362.79,-760.74,-110.35,-19.33,-92.74,-10.12,13.05,-37.05,52.05,35.41,118.25,
06/01/2021,01:10:16.62,-366.70,-757.32,-114.26,-19.39,-91.83,-10.37,13.05,-37.05,52.05,35.75,118.25,
06/01/2021,01:10:16.62,-371.09,-762.21,-121.58,-13.78,-89.57,-8.41,13.05,-33.90,51.30,35.27,118.25,
06/01/2021,01:10:16.64,-367.19,-774.41,-148.44,-8.54,-87.01,-8.66,12.90,-34.95,49.65,35.55,118.25,
06/01/2021,01:10:16.65,-367.19,-777.83,-152.83,-8.29,-82.20,-9.88,12.90,-34.95,50.70,35.60,118.25,
06/01/2021,01:10:16.65,-347.17,-790.53,-155.76,-5.73,-84.70,-7.74,10.80,-34.35,52.35,35.60,118.25,
06/01/2021,01:10:16.66,-344.73,-798.34,-193.85,-3.96,-81.83,-9.27,10.80,-34.35,52.35,35.60,118.25,
06/01/2021,01:10:16.67,-350.10,-795.90,-195.31,-2.38,-82.93,-10.85,12.75,-34.65,50.55,35.70,118.25,
06/01/2021,01:10:16.68,-348.14,-822.27,-233.40,4.82,-81.71,-12.56,11.10,-33.75,49.35,35.60,118.25,
06/01/2021,01:10:16.69,-364.26,-830.08,-259.28,7.50,-81.40,-10.00,11.10,-33.75,49.35,35.55,118.25,
06/01/2021,01:10:16.69,-368.65,-827.15,-277.34,10.18,-80.24,-10.00,10.05,-34.65,52.80,35.55,118.25,
06/01/2021,01:10:16.70,-361.33,-837.40,-305.66,12.07,-76.89,-11.71,10.05,-34.65,52.80,35.41,118.25,
06/01/2021,01:10:16.71,-367.19,-839.36,-303.22,10.43,-76.95,-12.93,10.05,-34.65,52.80,35.60,118.25,
06/01/2021,01:10:16.72,-376.46,-863.77,-346.19,16.77,-66.04,-15.00,10.65,-33.75,51.15,35.60,118.25,
06/01/2021,01:10:16.73,-379.88,-854.98,-373.54,18.05,-59.45,-12.56,9.00,-35.10,52.80,35.46,118.25,
06/01/2021,01:10:16.73,-393.55,-865.72,-375.00,20.73,-54.51,-15.61,9.30,-33.90,53.55,35.60,118.25,
06/01/2021,01:10:16.74,-386.23,-873.05,-401.37,17.20,-49.63,-16.77,9.30,-33.90,53.55,35.60,118.25,
06/01/2021,01:10:16.75,-397.46,-886.72,-424.32,18.54,-42.62,-17.44,8.25,-35.55,53.10,35.46,118.25,
06/01/2021,01:10:16.75,-387.21,-875.49,-426.76,21.28,-40.30,-18.78,9.75,-33.15,53.10,35.46,118.25,
06/01/2021,01:10:16.77,-387.70,-888.67,-449.22,24.21,-24.39,-18.17,9.00,-34.35,54.15,35.94,118.25,
06/01/2021,01:10:16.77,-368.65,-903.32,-437.01,20.43,-21.77,-18.66,8.70,-33.15,53.55,35.55,118.25,
06/01/2021,01:10:16.78,-364.75,-904.30,-439.45,18.60,-19.51,-21.04,8.70,-33.15,53.55,35.79,118.25,
06/01/2021,01:10:16.79,-336.91,-910.64,-438.48,16.65,-24.27,-19.57,9.30,-34.35,54.15,35.60,118.25,
06/01/2021,01:10:16.79,-341.80,-922.36,-448.24,16.28,-26.46,-18.41,9.30,-34.35,54.15,35.55,118.25,
06/01/2021,01:10:16.81,-384.28,-973.63,-529.30,-2.38,-37.99,-12.13,6.60,-33.75,53.70,35.41,118.25,
06/01/2021,01:10:16.81,-407.71,-985.35,-557.62,-7.62,-44.94,-8.96,6.60,-33.75,53.70,35.55,118.25,
06/01/2021,01:10:16.82,-416.02,-1006.84,-570.31,-11.95,-58.84,-2.32,6.60,-33.75,53.70,35.55,118.25,
06/01/2021,01:10:16.83,-422.85,-1038.57,-579.59,-18.60,-69.94,1.77,6.45,-33.15,52.35,35.46,118.25,
06/01/2021,01:10:16.83,-442.87,-1075.20,-592.77,-26.46,-80.37,4.21,6.45,-33.15,52.35,35.46,118.25,
06/01/2021,01:10:16.88,-499.02,-1281.25,-462.89,-46.22,-132.62,8.60,4.20,-34.35,55.65,35.55,118.25,
06/01/2021,01:10:16.89,-477.54,-1197.27,-396.97,-43.66,-126.04,12.26,4.20,-34.35,55.65,35.70,118.24,
06/01/2021,01:10:16.90,-475.59,-1182.62,-373.54,-41.10,-124.21,12.13,3.45,-33.90,54.60,35.46,118.24,
06/01/2021,01:10:16.90,-448.73,-1166.50,-327.15,-38.66,-115.73,12.74,3.45,-33.90,54.60,35.55,118.25,
06/01/2021,01:10:16.91,-421.88,-1163.09,-322.75,-35.55,-110.55,12.13,3.45,-33.90,54.60,35.36,118.25,
06/01/2021,01:10:16.92,-392.09,-1099.12,-291.99,-38.35,-88.60,13.48,1.80,-34.95,52.65,35.46,118.24,
06/01/2021,01:10:16.93,-402.34,-1062.99,-291.99,-42.99,-81.77,17.87,1.80,-34.95,52.65,35.55,118.24,
06/01/2021,01:10:16.94,-417.97,-1030.76,-283.69,-44.27,-71.40,23.41,2.55,-35.70,52.20,35.41,118.25,
06/01/2021,01:10:16.94,-414.06,-981.93,-273.44,-46.04,-60.00,23.72,2.40,-35.55,53.85,35.70,118.25,
06/01/2021,01:10:16.95,-403.81,-953.61,-287.60,-46.34,-50.18,29.88,2.40,-35.55,53.85,35.55,118.25,
06/01/2021,01:10:16.96,-392.09,-890.14,-214.84,-49.39,-33.66,32.44,1.05,-36.90,54.00,35.46,118.24,
06/01/2021,01:10:16.97,-385.25,-874.51,-210.45,-51.71,-26.83,36.52,1.05,-36.90,54.00,35.60,118.25,
06/01/2021,01:10:16.98,-376.46,-874.51,-196.78,-50.98,-25.00,36.46,1.05,-36.90,54.00,35.46,118.25,
06/01/2021,01:10:16.98,-349.61,-895.02,-166.99,-52.44,-24.09,40.30,1.95,-35.10,52.35,35.60,118.25,
06/01/2021,01:10:16.99,-338.87,-890.14,-168.95,-57.99,-26.34,37.62,1.95,-35.10,52.35,35.36,118.25,
06/01/2021,01:10:17.00,-303.22,-941.89,-142.58,-62.80,-37.74,37.38,1.95,-35.55,51.60,35.70,118.25,
06/01/2021,01:10:17.01,-299.32,-971.68,-128.91,-66.28,-45.43,37.38,1.95,-35.55,51.60,35.55,118.25,
06/01/2021,01:10:17.02,-289.55,-973.63,-125.49,-66.95,-54.39,38.41,1.65,-36.60,52.80,35.55,118.25,
06/01/2021,01:10:17.02,-291.02,-990.72,-105.47,-71.34,-61.71,41.59,2.10,-37.20,52.65,35.70,118.25,
06/01/2021,01:10:17.03,-301.27,-1000.49,-103.03,-74.63,-67.44,38.11,2.10,-37.20,52.65,35.41,118.25,
06/01/2021,01:10:17.05,-289.55,-1043.95,-66.89,-77.44,-85.67,38.48,1.20,-37.35,50.55,35.27,118.25,
06/01/2021,01:10:17.05,-305.18,-1063.96,-50.29,-79.57,-91.65,36.22,1.20,-37.35,50.55,35.55,118.25,
06/01/2021,01:10:17.06,-312.01,-1062.99,-35.64,-78.60,-100.30,36.40,0.30,-37.65,50.70,35.46,118.25,
06/01/2021,01:10:17.06,-317.87,-1074.22,-40.53,-79.88,-107.62,33.05,2.10,-38.40,50.40,35.46,118.25,
06/01/2021,01:10:17.07,-313.48,-1081.05,-36.62,-82.44,-112.44,31.46,2.10,-38.40,50.40,35.46,118.25,
06/01/2021,01:10:17.09,-352.54,-1080.08,-10.25,-83.84,-128.96,28.17,2.70,-35.55,48.75,35.55,118.25,
06/01/2021,01:10:17.09,-369.14,-1069.34,-0.49,-82.26,-130.61,28.41,2.70,-35.55,48.75,35.41,118.25,
06/01/2021,01:10:17.10,-388.67,-1058.11,4.88,-81.77,-132.74,25.43,0.90,-39.30,50.25,35.55,118.25,
06/01/2021,01:10:17.10,-378.42,-1027.34,-8.79,-82.32,-132.38,23.66,0.90,-39.30,50.25,35.46,118.25,
06/01/2021,01:10:17.11,-378.91,-1021.97,-4.39,-79.82,-132.62,26.04,0.90,-39.30,50.25,35.55,118.25,
06/01/2021,01:10:17.13,-386.72,-961.43,13.18,-74.27,-130.12,24.27,-1.65,-39.00,48.30,35.55,118.25,
06/01/2021,01:10:17.13,-381.35,-941.41,32.23,-71.59,-124.51,25.06,-1.65,-39.00,48.30,35.55,118.25,
06/01/2021,01:10:17.14,-389.16,-916.02,0.49,-69.88,-120.06,25.67,-1.35,-40.65,48.90,35.46,118.25,
06/01/2021,01:10:17.14,-386.72,-901.86,6.84,-66.28,-117.13,26.65,-2.70,-39.75,47.25,35.55,118.25,
06/01/2021,01:10:17.15,-385.74,-881.35,-11.72,-62.56,-109.39,27.87,-2.70,-39.75,47.25,35.60,118.25,
06/01/2021,01:10:17.17,-393.07,-861.82,-15.62,-52.68,-91.40,28.96,-1.35,-39.90,47.85,35.46,118.25,
06/01/2021,01:10:17.17,-370.12,-843.75,-14.65,-49.63,-87.07,30.61,-1.35,-39.90,47.85,35.55,118.25,
06/01/2021,01:10:17.18,-371.58,-854.49,-2.44,-47.38,-80.43,28.60,-1.35,-39.90,47.85,35.55,118.25,
06/01/2021,01:10:17.18,-370.61,-837.40,-16.11,-42.44,-71.77,32.32,-3.30,-39.45,46.80,35.70,118.25,
06/01/2021,01:10:17.19,-360.84,-827.15,-12.21,-44.88,-63.90,29.94,-3.30,-39.45,46.80,35.70,118.25,
06/01/2021,01:10:17.20,-366.21,-839.36,0.49,-41.40,-56.04,29.94,-3.30,-39.45,46.80,35.46,118.25,
06/01/2021,01:10:17.21,-326.66,-845.70,0.00,-33.66,-47.26,27.07,-1.65,-40.50,45.15,35.60,118.25,
06/01/2021,01:10:17.22,-316.41,-836.91,-12.21,-34.51,-45.61,24.15,-4.05,-41.85,47.10,35.70,118.25,
06/01/2021,01:10:17.22,-309.57,-835.94,-0.49,-32.99,-46.83,23.05,-2.10,-39.90,44.85,35.55,118.25,
06/01/2021,01:10:17.23,-286.62,-854.00,14.65,-31.10,-46.95,20.37,-2.10,-39.90,44.85,35.60,118.25,
06/01/2021,01:10:17.24,-286.62,-856.45,6.84,-31.40,-48.72,16.46,-1.35,-40.35,46.35,35.70,118.25,
06/01/2021,01:10:17.25,-272.46,-851.56,-4.88,-30.98,-52.93,11.52,-2.55,-39.90,45.30,35.07,118.25,
06/01/2021,01:10:17.26,-279.30,-848.63,-5.37,-31.65,-57.26,4.82,-4.35,-41.40,45.30,35.36,118.25,
06/01/2021,01:10:17.26,-282.23,-854.49,3.91,-31.46,-60.67,-0.43,-4.35,-41.40,45.30,35.46,118.25,
06/01/2021,01:10:17.27,-284.67,-848.14,6.35,-30.61,-63.41,-4.15,-4.35,-41.40,45.30,35.55,118.25,
06/01/2021,01:10:17.27,-268.07,-842.77,5.37,-30.18,-65.24,-8.84,-2.55,-41.10,46.35,35.41,118.25,
06/01/2021,01:10:17.29,-280.76,-852.05,6.84,-31.22,-72.80,-21.22,-2.55,-41.10,46.35,35.70,118.25,
06/01/2021,01:10:17.30,-284.18,-844.73,10.74,-29.27,-73.05,-26.71,-4.05,-41.85,46.80,35.46,118.25,
06/01/2021,01:10:17.30,-310.06,-850.10,-6.84,-27.74,-77.50,-33.60,-4.05,-41.85,46.80,35.79,118.25,
06/01/2021,01:10:17.31,-298.34,-852.05,-9.77,-27.80,-76.83,-37.32,-4.35,-40.35,44.85,35.60,118.25,
06/01/2021,01:10:17.31,-326.17,-866.21,-19.04,-26.77,-78.48,-44.27,-4.05,-41.10,44.55,35.79,118.25,
06/01/2021,01:10:17.33,-351.56,-880.37,-26.37,-25.00,-78.11,-58.41,-2.70,-41.25,43.65,35.55,118.25,
06/01/2021,01:10:17.34,-352.05,-898.44,-40.53,-22.68,-70.55,-61.83,-4.50,-42.00,45.45,35.36,118.25,
06/01/2021,01:10:17.34,-352.54,-904.30,-41.99,-21.59,-72.07,-65.37,-4.50,-42.00,45.45,35.46,118.25,
06/01/2021,01:10:17.35,-354.00,-911.13,-46.88,-19.76,-68.60,-70.06,-6.00,-40.80,45.15,35.55,118.25,
06/01/2021,01:10:17.38,-380.37,-958.01,-91.31,-13.05,-55.67,-92.32,-6.90,-41.85,44.10,35.60,118.25,
06/01/2021,01:10:17.41,-396.00,-979.49,-102.05,-10.00,-51.95,-100.30,-8.70,-42.45,43.95,35.75,118.24,
06/01/2021,01:10:17.41,-410.16,-988.77,-107.42,-12.62,-47.93,-103.60,-8.40,-41.85,44.55,35.22,118.24,
06/01/2021,01:10:17.42,-415.04,-996.58,-102.05,-13.17,-47.50,-103.23,-8.40,-41.85,44.55,35.46,118.24,
06/01/2021,01:10:17.43,-419.43,-1007.32,-127.44,-11.28,-47.13,-106.46,-9.90,-40.65,44.10,35.60,118.24,
06/01/2021,01:10:17.43,-436.52,-1007.81,-117.68,-13.29,-43.23,-106.34,-9.90,-40.65,44.10,35.55,118.24,
06/01/2021,01:10:17.45,-433.11,-1047.36,-122.07,-10.67,-43.29,-106.34,-11.85,-41.40,42.00,35.94,118.24,
06/01/2021,01:10:17.46,-425.78,-1069.34,-116.70,-11.22,-41.22,-110.37,-11.55,-39.75,42.90,35.60,118.24,
06/01/2021,01:10:17.46,-455.08,-1094.24,-98.14,-11.40,-41.52,-110.12,-11.55,-39.75,42.90,35.46,118.24,
06/01/2021,01:10:17.47,-469.73,-1147.95,-88.87,-7.44,-44.09,-108.60,-11.55,-39.75,42.90,35.55,118.24,
06/01/2021,01:10:17.47,-447.27,-1197.27,-71.78,-6.46,-41.59,-111.59,-12.75,-39.00,42.90,35.70,118.25,
06/01/2021,01:10:17.49,-496.58,-1375.49,-88.87,-6.28,-44.15,-115.18,-12.75,-39.00,42.15,35.17,118.24,
06/01/2021,01:10:17.50,-526.86,-1401.37,-105.96,-2.93,-45.43,-112.62,-14.85,-40.05,43.20,35.46,118.24,
06/01/2021,01:10:17.50,-536.13,-1411.62,-121.09,-5.55,-48.41,-114.15,-14.85,-40.05,43.20,35.75,118.24,
06/01/2021,01:10:17.51,-540.04,-1389.65,-124.02,-5.00,-47.20,-112.99,-14.85,-39.30,43.95,35.46,118.25,
06/01/2021,01:10:17.51,-559.08,-1336.91,-129.88,-4.82,-47.44,-112.26,-14.85,-38.10,41.40,35.55,118.25,
06/01/2021,01:10:17.53,-559.57,-1160.16,-196.29,0.49,-45.67,-103.17,-17.70,-38.40,42.30,35.46,118.24,
06/01/2021,01:10:17.54,-555.66,-1115.72,-216.80,0.00,-42.68,-93.96,-18.75,-38.70,42.30,35.46,118.24,
06/01/2021,01:10:17.54,-573.24,-1070.80,-236.82,4.39,-39.39,-87.62,-18.75,-38.70,42.30,35.55,118.25,
06/01/2021,01:10:17.55,-559.08,-1041.99,-257.32,2.93,-36.95,-81.46,-17.85,-40.05,43.20,35.55,118.25,
06/01/2021,01:10:17.56,-570.80,-1016.60,-271.97,5.18,-32.56,-78.23,-17.85,-40.05,43.20,35.60,118.25,
06/01/2021,01:10:17.57,-541.99,-919.43,-299.32,4.70,-19.02,-60.43,-18.30,-38.10,41.40,35.46,118.24,
06/01/2021,01:10:17.58,-533.69,-882.32,-301.27,4.21,-15.06,-52.62,-18.30,-38.10,41.40,35.60,118.25,
06/01/2021,01:10:17.58,-516.11,-832.03,-308.59,1.77,-10.85,-48.54,-18.30,-38.10,41.40,35.70,118.25,
06/01/2021,01:10:17.59,-512.21,-788.57,-305.18,-1.77,-5.67,-42.93,-20.55,-37.35,42.90,35.55,118.25,
06/01/2021,01:10:17.60,-490.23,-751.46,-306.15,-2.01,-5.37,-34.27,-19.80,-36.30,42.15,35.46,118.25,
06/01/2021,01:10:17.61,-451.66,-690.43,-268.55,-1.83,-2.93,-17.62,-19.35,-37.35,42.15,35.46,118.25,
06/01/2021,01:10:17.62,-442.38,-703.61,-250.49,-2.01,-3.48,-13.54,-19.35,-37.35,42.45,35.70,118.25,
06/01/2021,01:10:17.62,-417.97,-719.73,-237.30,-4.76,-4.51,-8.48,-19.35,-37.35,42.45,35.70,118.25,
06/01/2021,01:10:17.63,-416.50,-752.44,-215.33,-5.06,-5.30,-2.62,-18.75,-37.95,42.00,35.55,118.25,
06/01/2021,01:10:17.64,-414.06,-787.60,-209.47,-5.67,-10.67,2.32,-19.35,-35.85,41.85,35.70,118.25,
06/01/2021,01:10:17.65,-390.62,-900.39,-178.71,-11.40,-19.63,12.38,-20.25,-39.15,41.25,35.41,118.25,
06/01/2021,01:10:17.66,-393.07,-936.04,-165.04,-15.85,-23.48,13.05,-19.95,-36.45,43.05,35.55,118.25,
06/01/2021,01:10:17.66,-389.65,-956.54,-150.39,-14.45,-30.73,15.43,-19.95,-36.45,43.05,35.46,118.25,
06/01/2021,01:10:17.67,-384.77,-988.28,-145.02,-17.80,-36.95,15.55,-19.95,-36.45,43.05,35.55,118.25,
06/01/2021,01:10:17.68,-377.93,-1007.81,-137.70,-22.50,-46.16,18.41,-20.10,-36.30,41.40,35.55,118.25,
06/01/2021,01:10:17.69,-390.62,-1016.11,-114.75,-25.61,-63.29,22.74,-20.10,-36.30,41.40,35.55,118.25,
06/01/2021,01:10:17.70,-390.14,-1029.79,-126.95,-25.73,-74.09,24.02,-20.25,-37.20,42.30,35.36,118.25,
06/01/2021,01:10:17.70,-408.20,-1027.83,-109.86,-23.29,-77.50,29.82,-20.25,-37.20,42.30,35.55,118.25,
06/01/2021,01:10:17.71,-411.13,-1014.16,-135.74,-25.55,-79.09,27.99,-20.70,-36.90,41.55,35.55,118.25,
06/01/2021,01:10:17.72,-418.95,-1007.81,-146.00,-24.82,-83.35,33.48,-20.70,-38.70,40.20,35.70,118.25,
06/01/2021,01:10:17.73,-433.11,-972.17,-171.88,-22.50,-80.61,37.93,-19.95,-37.65,39.00,35.70,118.25,
06/01/2021,01:10:17.74,-449.71,-938.96,-166.02,-20.24,-77.87,41.28,-20.55,-38.55,41.40,35.60,118.25,
06/01/2021,01:10:17.74,-434.08,-931.15,-187.99,-17.26,-74.45,42.13,-21.60,-76.50,41.40,35.17,118.25,
06/01/2021,01:10:17.75,-437.01,-902.34,-192.87,-14.45,-70.06,47.13,-21.60,-38.10,39.90,35.60,118.25,
06/01/2021,01:10:17.76,-437.99,-874.51,-203.12,-13.54,-64.94,47.38,-21.60,-38.10,39.90,35.46,118.25,
06/01/2021,01:10:17.77,-439.45,-827.15,-174.32,-5.00,-46.34,56.34,-18.75,-37.95,37.95,35.75,118.25,
06/01/2021,01:10:17.78,-436.04,-812.50,-169.43,-5.12,-37.20,56.65,-18.75,-37.95,37.95,35.55,118.25,
06/01/2021,01:10:17.79,-431.15,-811.52,-175.78,-1.40,-30.85,60.18,-19.35,-37.80,38.55,35.46,118.25,
06/01/2021,01:10:17.79,-413.57,-803.22,-170.41,5.43,-22.32,64.94,-19.35,-37.80,38.55,35.70,118.25,
06/01/2021,01:10:17.80,-411.13,-832.52,-170.41,6.77,-15.91,63.78,-20.55,-37.05,37.35,35.60,118.25,
06/01/2021,01:10:17.81,-395.02,-840.82,-156.74,11.46,4.57,66.46,-17.85,-37.80,38.55,35.55,118.25,
06/01/2021,01:10:17.82,-375.00,-840.33,-181.15,13.48,8.90,63.90,-19.95,-41.40,39.75,35.55,118.25,
06/01/2021,01:10:17.83,-362.30,-848.63,-165.04,13.66,15.43,65.49,-18.00,-38.70,40.20,35.41,118.25,
06/01/2021,01:10:17.83,-344.24,-866.21,-150.39,13.54,18.90,63.05,-18.00,-38.70,40.20,35.36,118.25,
06/01/2021,01:10:17.84,-340.82,-873.54,-157.23,16.65,21.40,63.35,-18.45,-39.45,40.20,35.55,118.25,
06/01/2021,01:10:17.85,-407.23,-877.44,-187.50,15.79,32.68,61.89,-18.45,-39.45,40.20,35.60,118.25,
06/01/2021,01:10:17.86,-374.51,-892.09,-211.91,17.87,40.61,57.74,-19.95,-40.35,40.50,35.46,118.25,
06/01/2021,01:10:17.89,-236.82,-839.84,-247.07,23.35,88.05,29.76,-16.20,-39.90,40.95,35.60,118.24,
06/01/2021,01:10:17.91,-206.54,-845.21,-222.66,26.16,72.44,27.07,-17.55,-39.30,41.40,35.46,118.24,
06/01/2021,01:10:17.92,-204.10,-840.33,-238.28,27.93,60.79,27.50,-13.65,-39.15,41.40,35.46,118.24,
06/01/2021,01:10:17.92,-228.03,-841.80,-246.58,30.00,51.95,23.72,-13.65,-39.15,41.25,35.75,118.24,
06/01/2021,01:10:17.94,-259.28,-869.14,-256.35,33.35,31.77,18.66,-14.55,-39.30,41.40,35.46,118.24,
06/01/2021,01:10:17.94,-276.86,-876.46,-263.67,35.61,28.54,15.30,-14.55,-39.30,41.40,35.41,118.24,
06/01/2021,01:10:17.95,-302.73,-877.44,-269.53,37.50,27.01,12.07,-16.35,-39.30,41.10,35.46,118.24,
06/01/2021,01:10:17.95,-312.99,-897.95,-282.71,37.93,29.94,10.61,-16.35,-39.30,41.10,35.75,118.24,
06/01/2021,01:10:17.96,-333.01,-919.92,-284.18,40.79,32.01,4.70,-16.35,-39.30,41.10,35.22,118.24,
06/01/2021,01:10:17.98,-379.39,-944.82,-294.92,41.65,43.96,-2.80,-13.80,-40.50,39.90,35.55,118.24,
06/01/2021,01:10:17.98,-375.49,-952.15,-314.94,37.68,49.27,-4.57,-13.80,-40.50,39.90,35.36,118.24,
06/01/2021,01:10:17.99,-372.07,-960.94,-326.17,37.44,59.15,-9.15,-13.20,-40.35,43.50,35.75,118.24,
06/01/2021,01:10:17.99,-382.32,-971.19,-325.68,34.33,62.32,-9.88,-13.20,-40.35,43.50,35.22,118.24,
06/01/2021,01:10:18.00,-373.05,-956.54,-357.42,32.99,71.65,-11.77,-14.85,-39.00,42.90,35.60,118.24,
06/01/2021,01:10:18.02,-336.91,-958.50,-350.10,27.01,76.77,-18.60,-15.45,-39.45,44.85,35.55,118.24,
06/01/2021,01:10:18.02,-338.87,-954.10,-350.10,24.57,76.89,-18.41,-15.45,-39.45,44.85,35.46,118.24,
06/01/2021,01:10:18.03,-334.96,-952.15,-328.61,24.70,71.10,-15.30,-14.70,-39.90,44.10,35.70,118.24,
06/01/2021,01:10:18.03,-348.63,-938.48,-306.64,24.21,60.79,-11.16,-14.70,-39.90,44.10,35.41,118.24,
06/01/2021,01:10:18.04,-370.12,-920.90,-310.55,20.55,50.73,-5.98,-13.50,-40.05,43.65,35.46,118.24,
06/01/2021,01:10:18.06,-407.71,-946.29,-286.62,19.45,30.79,-1.77,-14.70,-38.40,44.10,35.46,118.24,
06/01/2021,01:10:18.06,-415.04,-965.82,-288.57,15.61,26.52,-3.11,-14.70,-38.40,44.10,35.55,118.24,
06/01/2021,01:10:18.07,-431.15,-987.30,-278.81,15.30,25.49,0.49,-14.70,-38.40,44.10,35.60,118.24,
06/01/2021,01:10:18.07,-439.94,-1009.28,-262.21,16.28,26.28,-1.04,-14.70,-38.40,44.10,35.60,118.24,
06/01/2021,01:10:18.08,-461.43,-1055.18,-257.81,15.43,29.45,0.00,-12.75,-39.30,46.20,35.55,118.24,
06/01/2021,01:10:18.10,-417.48,-1228.03,-214.36,16.22,45.55,-8.96,-13.80,-39.30,45.45,35.55,118.24,
06/01/2021,01:10:18.10,-424.32,-1303.22,-192.38,16.52,48.96,-16.52,-13.80,-39.30,45.45,35.55,118.24,
06/01/2021,01:10:18.11,-416.02,-1366.21,-157.23,13.72,53.60,-19.21,-13.05,-38.55,46.95,35.70,118.24,
06/01/2021,01:10:18.11,-419.43,-1395.02,-139.65,12.93,56.40,-25.67,-13.05,-38.55,46.95,35.55,118.24,
06/01/2021,01:10:18.12,-422.85,-1411.13,-139.16,11.65,56.59,-29.33,-13.20,-38.70,45.60,35.55,118.25,
06/01/2021,01:10:18.14,-456.54,-1331.05,-133.30,2.26,62.80,-35.37,-11.85,-38.40,45.30,35.55,118.24,
06/01/2021,01:10:18.14,-481.45,-1284.67,-151.37,-1.52,59.76,-35.85,-11.85,-38.40,45.30,35.60,118.24,
06/01/2021,01:10:18.15,-488.28,-1233.40,-151.37,-1.95,62.01,-36.22,-14.70,-36.45,47.40,35.46,118.24,
06/01/2021,01:10:18.15,-472.66,-1184.57,-151.37,-3.72,66.65,-35.00,-14.70,-36.45,47.40,35.55,118.25,
06/01/2021,01:10:18.16,-473.63,-1150.88,-142.58,-4.94,71.28,-35.12,-14.70,-36.45,47.40,35.75,118.25,
06/01/2021,01:10:18.18,-449.22,-1062.50,-133.30,-9.39,75.55,-30.00,-14.70,-36.90,44.55,35.75,118.24,
06/01/2021,01:10:18.18,-441.41,-1040.53,-129.39,-11.59,75.49,-26.40,-14.70,-36.90,44.55,35.46,118.25,
06/01/2021,01:10:18.19,-425.78,-1015.62,-116.70,-16.89,76.28,-23.41,-13.95,-36.90,45.60,35.46,118.25,
06/01/2021,01:10:18.20,-410.16,-954.59,-114.75,-15.30,77.13,-17.68,-13.95,-36.90,45.60,35.55,118.25,
06/01/2021,01:10:18.20,-417.48,-936.52,-112.30,-19.21,78.05,-14.33,-13.80,-37.05,46.50,35.46,118.25,
06/01/2021,01:10:18.22,-401.37,-887.21,-94.73,-22.68,79.09,-3.90,-13.50,-37.80,47.25,35.75,118.25,
06/01/2021,01:10:18.22,-380.37,-891.11,-70.31,-21.59,76.71,-2.26,-13.50,-37.80,47.25,35.70,118.25,
06/01/2021,01:10:18.23,-375.49,-885.25,-63.96,-23.90,75.30,1.40,-12.90,-37.95,47.10,35.46,118.25,
06/01/2021,01:10:18.24,-380.86,-906.74,-44.43,-25.24,74.02,4.63,-12.90,-37.95,47.10,35.70,118.25,
06/01/2021,01:10:18.24,-393.55,-928.22,-48.34,-22.56,70.79,4.57,-14.25,-36.60,47.70,35.55,118.25,
06/01/2021,01:10:18.26,-374.02,-973.14,-16.60,-27.80,63.11,6.89,-12.00,-36.30,48.75,35.70,118.25,
06/01/2021,01:10:18.26,-364.26,-980.47,-17.09,-28.35,59.82,6.28,-12.00,-36.30,48.75,35.60,118.25,
06/01/2021,01:10:18.27,-374.51,-992.19,-15.62,-31.95,57.38,1.46,-12.00,-36.30,48.75,35.55,118.25,
06/01/2021,01:10:18.27,-376.46,-986.82,11.23,-34.57,52.80,0.85,-12.00,-36.30,48.75,35.55,118.25,
06/01/2021,01:10:18.28,-396.00,-977.05,13.18,-33.05,50.37,7.20,-12.30,-37.80,45.75,35.22,118.25,
06/01/2021,01:10:18.30,-382.32,-963.87,48.83,-36.34,41.10,0.67,-12.75,-38.10,45.45,35.46,118.25,
06/01/2021,01:10:18.30,-369.63,-964.36,54.69,-34.39,39.15,-0.85,-12.75,-38.10,45.45,35.60,118.25,
06/01/2021,01:10:18.31,-394.53,-967.29,77.64,-35.61,33.54,-0.37,-13.80,-36.30,45.75,35.55,118.25,
06/01/2021,01:10:18.31,-392.09,-956.54,73.73,-35.37,29.76,-2.93,-13.80,-36.30,45.75,35.36,118.25,
06/01/2021,01:10:18.32,-396.00,-964.84,79.10,-34.33,28.54,-4.76,-11.55,-38.55,45.75,35.55,118.25,
06/01/2021,01:10:18.33,-393.55,-948.73,90.33,-32.50,25.30,-3.05,-10.65,-36.00,45.60,35.70,118.25,
06/01/2021,01:10:18.34,-407.23,-932.13,98.14,-30.00,21.22,-5.85,-10.65,-36.00,45.60,35.55,118.25,
06/01/2021,01:10:18.35,-422.36,-919.43,112.79,-27.87,23.05,-6.52,-11.55,-39.00,46.20,35.55,118.25,
06/01/2021,01:10:18.35,-415.53,-912.60,94.24,-26.40,25.43,-6.34,-11.55,-39.00,46.20,35.46,118.25,
06/01/2021,01:10:18.36,-426.76,-899.41,89.84,-25.85,25.49,-4.63,-11.55,-39.00,46.20,35.75,118.25,
06/01/2021,01:10:18.37,-421.39,-890.14,92.29,-26.52,29.21,-7.74,-11.55,-39.00,46.20,35.60,118.25,
06/01/2021,01:10:18.43,-458.01,-861.82,94.73,-6.52,81.95,4.63,-11.25,-37.05,46.95,35.55,118.24,
06/01/2021,01:10:18.45,-443.36,-870.61,117.68,-3.23,86.83,8.96,-11.10,-37.95,45.60,35.36,118.24,
06/01/2021,01:10:18.45,-430.66,-879.88,116.21,2.13,89.02,14.27,-11.10,-37.95,45.60,35.46,118.24,
06/01/2021,01:10:18.46,-419.43,-889.16,127.44,-0.37,85.43,13.17,-9.75,-37.35,45.45,35.55,118.24,
06/01/2021,01:10:18.46,-422.85,-898.93,125.00,-0.12,83.90,18.48,-9.75,-37.35,45.45,35.55,118.24,
06/01/2021,01:10:18.48,-378.42,-927.25,148.93,2.74,72.56,28.72,-9.90,-36.45,46.80,35.70,118.24,
06/01/2021,01:10:18.48,-361.82,-931.64,144.53,2.93,69.76,31.22,-9.90,-36.45,46.80,35.17,118.24,
06/01/2021,01:10:18.49,-362.30,-947.75,147.95,2.07,64.82,31.04,-9.75,-37.05,47.25,35.22,118.24,
06/01/2021,01:10:18.50,-360.84,-941.41,160.64,3.05,57.56,37.87,-8.70,-37.05,46.95,35.55,118.24,
06/01/2021,01:10:18.50,-354.49,-951.66,150.39,5.18,52.87,36.83,-8.70,-37.05,46.95,35.60,118.24,
06/01/2021,01:10:18.52,-377.44,-948.24,162.11,7.74,36.10,46.34,-9.60,-36.45,47.85,35.55,118.24,
06/01/2021,01:10:18.52,-359.86,-941.41,158.20,10.49,33.35,46.04,-9.60,-36.45,47.85,35.46,118.24,
06/01/2021,01:10:18.53,-352.05,-958.01,154.30,8.84,28.72,49.21,-8.10,-38.70,46.35,35.79,118.24,
06/01/2021,01:10:18.54,-349.61,-942.87,167.97,10.30,27.07,48.84,-8.10,-38.70,46.35,35.55,118.24,
06/01/2021,01:10:18.54,-358.89,-934.08,155.76,15.55,22.68,53.48,-8.10,-38.70,46.35,35.46,118.24,
06/01/2021,01:10:18.56,-349.61,-976.07,148.44,17.62,19.27,57.80,-6.45,-37.05,46.20,35.55,118.24,
06/01/2021,01:10:18.56,-350.10,-987.30,137.70,19.45,18.84,57.01,-6.45,-37.05,46.20,35.36,118.24,
06/01/2021,01:10:18.57,-358.40,-1007.81,137.21,20.73,20.37,56.22,-8.85,-38.40,47.40,35.55,118.24,
06/01/2021,01:10:18.58,-362.79,-1018.55,148.93,24.70,15.98,57.26,-8.85,-38.40,47.40,35.55,118.24,
06/01/2021,01:10:18.58,-357.42,-1021.97,143.55,24.63,17.87,56.65,-6.90,-35.25,47.10,35.46,118.24,
06/01/2021,01:10:18.59,-353.52,-1032.23,139.65,26.77,18.84,56.83,-4.50,-38.10,44.70,35.75,118.24,
06/01/2021,01:10:18.60,-348.14,-1047.36,121.09,33.29,19.45,52.87,-6.00,-36.60,46.50,35.79,118.24,
06/01/2021,01:10:18.61,-349.12,-1047.36,114.26,35.24,17.56,51.65,-7.95,-36.30,47.70,35.27,118.24,
06/01/2021,01:10:18.62,-358.40,-1054.69,115.72,37.68,21.46,50.06,-7.95,-36.30,47.70,35.22,118.24,
06/01/2021,01:10:18.62,-347.17,-1057.62,101.07,41.46,18.90,50.00,-4.50,-35.55,48.00,35.60,118.24,
06/01/2021,01:10:18.63,-357.42,-1050.29,84.47,40.06,23.35,47.20,-6.15,-37.20,47.10,35.60,118.24,
06/01/2021,01:10:18.64,-353.52,-1012.70,57.62,46.10,28.35,38.72,-5.25,-35.85,48.30,35.46,118.24,
06/01/2021,01:10:18.65,-344.73,-1022.95,44.43,50.91,28.11,37.32,-5.25,-35.85,48.30,35.55,118.24,
06/01/2021,01:10:18.66,-375.49,-1023.44,18.07,53.78,35.98,35.49,-5.25,-35.85,48.30,35.75,118.24,
06/01/2021,01:10:18.66,-374.02,-1010.74,28.81,54.39,37.07,34.57,-3.30,-36.45,48.15,35.55,118.24,
06/01/2021,01:10:18.67,-373.54,-1032.23,22.46,59.02,40.67,31.46,-3.30,-36.45,48.15,35.79,118.24,
06/01/2021,01:10:18.68,-372.07,-1135.74,20.51,66.04,50.00,24.02,-3.00,-36.30,49.05,35.98,118.24,
06/01/2021,01:10:18.69,-358.40,-1176.76,2.44,66.22,52.56,21.10,-4.80,-35.70,50.40,35.55,118.24,
06/01/2021,01:10:18.70,-373.54,-1187.01,-2.93,68.84,52.87,16.59,-4.80,-35.70,50.40,35.55,118.24,
06/01/2021,01:10:18.70,-370.12,-1215.82,-14.65,72.68,56.83,13.78,-2.70,-31.95,50.55,35.55,118.24,
06/01/2021,01:10:18.71,-367.68,-1220.21,-42.97,72.13,60.00,9.27,-3.75,-34.35,50.25,35.36,118.24,
06/01/2021,01:10:18.72,-398.93,-1145.02,-148.44,80.18,67.93,-0.85,-2.85,-34.50,49.95,35.55,118.24,
06/01/2021,01:10:18.73,-424.32,-1104.00,-187.01,81.59,77.68,1.46,-2.70,-34.65,52.05,35.60,118.24,
06/01/2021,01:10:18.74,-428.22,-1046.88,-242.68,85.55,84.63,-2.13,-2.70,-34.65,52.05,35.70,118.24,
06/01/2021,01:10:18.74,-445.31,-1018.55,-294.92,87.38,92.56,-1.77,-2.70,-34.65,52.05,35.60,118.24,
06/01/2021,01:10:18.75,-459.96,-997.07,-335.94,86.59,106.83,-2.74,-2.10,-34.20,51.90,35.55,118.24,
06/01/2021,01:10:18.76,-481.93,-906.74,-403.32,86.04,140.67,-0.30,-2.10,-34.20,51.90,35.79,118.24,
06/01/2021,01:10:18.77,-480.47,-892.09,-410.16,86.52,154.27,3.90,-1.80,-33.75,52.20,35.55,118.24,
06/01/2021,01:10:18.78,-477.05,-873.05,-430.66,84.76,166.59,2.56,-1.80,-33.75,52.20,35.60,118.24,
06/01/2021,01:10:18.78,-462.40,-873.05,-420.90,82.99,178.96,6.34,0.00,-33.30,53.70,35.46,118.24,
06/01/2021,01:10:18.79,-467.29,-870.12,-422.85,83.11,187.20,5.37,-0.15,-31.95,53.55,35.60,118.24,
06/01/2021,01:10:18.79,-455.08,-898.93,-416.02,83.05,195.98,10.55,-0.15,-31.95,53.55,35.46,118.24,
06/01/2021,01:10:18.81,-396.97,-942.87,-384.28,71.46,212.13,18.41,0.90,-32.85,53.10,35.46,118.24,
06/01/2021,01:10:18.82,-395.51,-959.96,-374.02,67.80,218.41,21.28,0.90,-32.85,53.10,35.07,118.24,
06/01/2021,01:10:18.82,-359.86,-973.14,-343.75,63.29,216.04,22.87,4.50,-31.20,53.85,35.36,118.24,
06/01/2021,01:10:18.83,-348.14,-1008.30,-324.71,58.72,212.01,29.51,4.50,-31.20,53.85,35.27,118.24,
06/01/2021,01:10:18.83,-312.50,-1030.76,-321.78,53.41,207.93,31.40,4.50,-31.20,53.85,35.41,118.24,
06/01/2021,01:10:18.85,-256.35,-1083.50,-274.41,35.67,189.02,39.21,6.15,-31.50,51.90,35.75,118.24,
06/01/2021,01:10:18.86,-216.31,-1123.05,-258.30,29.94,177.32,42.20,6.15,-31.50,51.90,35.46,118.24,
06/01/2021,01:10:18.86,-181.15,-1127.44,-233.40,24.39,163.41,44.57,8.85,-30.30,54.00,35.60,118.24,
06/01/2021,01:10:18.87,-168.46,-1123.54,-225.10,17.44,149.09,47.01,8.85,-30.30,54.00,35.60,118.24,
06/01/2021,01:10:18.87,-141.11,-1126.46,-196.78,11.40,132.74,47.56,8.85,-30.30,54.00,35.22,118.24,
06/01/2021,01:10:18.92,-172.36,-1014.65,-203.61,-23.29,-0.37,47.26,11.25,-30.15,53.10,35.55,118.24,
06/01/2021,01:10:18.93,-187.50,-976.07,-217.29,-27.56,-28.41,48.23,9.60,-29.55,53.25,35.55,118.24,
06/01/2021,01:10:18.94,-194.82,-974.61,-196.78,-27.68,-36.34,46.95,9.60,-29.55,53.25,35.55,118.24,
06/01/2021,01:10:18.95,-239.75,-952.64,-210.45,-30.79,-41.22,49.63,9.60,-29.55,53.25,35.75,118.24,
06/01/2021,01:10:18.95,-234.38,-930.66,-214.36,-30.43,-47.68,45.73,11.10,-30.30,54.45,35.46,118.24,
06/01/2021,01:10:18.97,-284.18,-922.85,-190.92,-29.51,-55.37,40.79,11.40,-30.30,51.15,35.79,118.24,
06/01/2021,01:10:18.97,-289.55,-918.46,-175.78,-30.91,-57.99,38.66,11.40,-30.30,51.15,35.55,118.24,
06/01/2021,01:10:18.98,-312.50,-913.09,-159.18,-29.57,-56.71,37.56,10.80,-30.90,53.85,35.46,118.24,
06/01/2021,01:10:18.99,-329.59,-908.20,-165.04,-29.57,-56.22,34.70,10.80,-30.90,53.85,35.55,118.24,
06/01/2021,01:10:18.99,-325.20,-897.46,-148.93,-28.66,-52.38,32.68,10.50,-29.70,53.10,35.41,118.24,
06/01/2021,01:10:19.01,-337.89,-866.70,-115.23,-25.30,-40.79,24.02,9.30,-28.95,53.10,35.55,118.24,
06/01/2021,01:10:19.01,-344.24,-861.33,-119.63,-20.24,-35.37,23.60,9.30,-28.95,53.10,34.93,118.24,
06/01/2021,01:10:19.02,-350.10,-854.00,-91.80,-19.45,-30.30,22.80,10.35,-29.55,53.70,35.41,118.24,
06/01/2021,01:10:19.03,-344.73,-845.70,-95.70,-16.77,-22.62,20.61,10.35,-29.55,53.70,35.70,118.24,
06/01/2021,01:10:19.03,-348.63,-841.80,-93.75,-13.41,-17.20,16.28,10.35,-29.55,53.70,35.36,118.24,
06/01/2021,01:10:19.05,-349.12,-845.70,-80.08,-6.04,2.07,11.28,11.85,-29.55,51.15,35.70,118.24,
06/01/2021,01:10:19.05,-348.63,-839.84,-72.75,-3.96,10.06,5.49,11.85,-29.55,51.15,35.46,118.24,
06/01/2021,01:10:19.06,-357.91,-844.24,-63.96,-2.74,15.12,4.45,9.30,-29.40,52.35,35.60,118.24,
06/01/2021,01:10:19.07,-352.05,-841.80,-81.54,2.01,18.90,0.85,9.30,-29.40,52.35,35.46,118.24,
06/01/2021,01:10:19.07,-351.07,-829.10,-64.45,3.17,28.41,2.44,9.15,-28.80,52.95,35.46,118.24,
06/01/2021,01:10:19.09,-359.38,-844.24,-65.92,9.94,41.04,-5.43,11.10,-28.35,51.90,35.46,118.24,
06/01/2021,01:10:19.09,-349.61,-838.87,-55.66,13.17,48.48,-7.50,9.60,-30.30,52.65,35.41,118.24,
06/01/2021,01:10:19.10,-342.77,-830.08,-47.36,14.21,50.24,-6.16,9.90,-28.80,52.20,35.55,118.24,
06/01/2021,01:10:19.11,-344.24,-818.36,-59.57,16.46,54.94,-9.51,9.90,-28.80,52.20,35.70,118.24,
06/01/2021,01:10:19.11,-337.89,-827.15,-66.41,18.66,57.07,-10.24,9.00,-30.15,53.10,35.60,118.24,
06/01/2021,01:10:19.12,-343.26,-833.50,-63.96,19.88,59.15,-14.09,9.00,-30.15,53.10,35.46,118.24,
06/01/2021,01:10:19.13,-304.69,-819.34,-68.36,25.30,58.84,-14.33,12.00,-28.50,52.05,35.46,118.24,
06/01/2021,01:10:19.14,-318.36,-830.57,-57.62,27.20,59.76,-17.44,12.00,-28.50,52.05,35.55,118.24,
06/01/2021,01:10:19.15,-309.08,-828.61,-79.10,28.78,58.54,-17.87,12.00,-28.50,52.05,35.46,118.24,
06/01/2021,01:10:19.15,-302.73,-830.08,-68.36,28.96,55.55,-19.39,11.85,-29.85,53.25,35.46,118.24,
06/01/2021,01:10:19.16,-319.82,-839.36,-78.61,31.10,55.12,-18.35,11.85,-29.85,53.25,35.36,118.24,
06/01/2021,01:10:19.17,-319.82,-852.54,-84.47,31.52,47.01,-21.10,12.30,-28.20,52.35,35.41,118.24,
06/01/2021,01:10:19.18,-312.01,-874.02,-98.14,35.61,44.57,-20.24,12.15,-28.80,51.15,35.70,118.24,
06/01/2021,01:10:19.19,-312.50,-879.39,-80.57,34.27,43.35,-24.76,12.15,-28.80,51.15,35.22,118.24,
06/01/2021,01:10:19.19,-326.66,-884.77,-100.10,34.88,42.44,-28.17,12.00,-28.20,50.55,35.22,118.24,
06/01/2021,01:10:19.20,-330.57,-886.23,-98.63,34.88,41.10,-28.05,12.00,-28.20,50.55,35.46,118.24,
06/01/2021,01:10:19.21,-358.89,-896.48,-133.79,36.89,33.78,-29.82,12.75,-27.75,51.30,35.55,118.24,
06/01/2021,01:10:19.22,-354.98,-885.25,-121.09,38.29,30.73,-33.66,11.85,-27.75,51.30,35.46,118.24,
06/01/2021,01:10:19.23,-356.93,-896.48,-145.51,36.46,33.35,-31.22,11.85,-28.35,52.65,35.17,118.24,
06/01/2021,01:10:19.23,-373.05,-899.41,-148.93,37.44,34.09,-32.56,11.85,-28.35,52.65,35.60,118.24,
06/01/2021,01:10:19.24,-380.37,-896.00,-153.81,39.51,31.46,-34.15,11.85,-28.35,52.65,35.41,118.24,
06/01/2021,01:10:19.25,-385.25,-888.18,-176.27,41.22,36.04,-35.98,13.65,-28.05,52.20,35.60,118.24,
06/01/2021,01:10:19.26,-393.55,-909.67,-187.99,38.84,37.13,-34.70,13.95,-26.85,52.65,35.60,118.24,
06/01/2021,01:10:19.27,-388.18,-916.02,-192.38,41.04,36.83,-35.43,13.95,-26.85,52.65,35.60,118.24,
06/01/2021,01:10:19.27,-405.27,-930.18,-192.87,43.96,41.34,-35.91,12.75,-27.75,52.80,35.55,118.24,
06/01/2021,01:10:19.28,-406.74,-968.75,-201.66,42.99,41.95,-31.83,12.75,-27.75,52.80,35.17,118.24,
06/01/2021,01:10:19.29,-415.53,-1157.23,-193.36,42.87,44.51,-36.89,12.90,-28.80,52.65,35.41,118.24,
06/01/2021,01:10:19.30,-440.43,-1234.86,-204.59,45.24,44.82,-38.23,12.00,-26.70,52.35,35.60,118.24,
06/01/2021,01:10:19.31,-447.27,-1311.52,-211.91,43.60,48.23,-41.04,12.00,-26.70,52.35,35.46,118.24,
06/01/2021,01:10:19.31,-451.66,-1397.46,-234.86,42.99,47.68,-42.74,13.65,-26.85,52.65,35.46,118.24,
06/01/2021,01:10:19.32,-464.36,-1450.68,-251.95,41.10,49.63,-45.12,13.65,-26.85,52.65,35.55,118.24,
06/01/2021,01:10:19.33,-504.39,-1399.41,-278.32,34.76,55.06,-51.52,14.25,-27.75,52.80,35.55,118.24,
06/01/2021,01:10:19.34,-509.28,-1343.75,-270.51,30.91,59.76,-52.74,14.25,-27.75,52.80,35.55,118.24,
06/01/2021,01:10:19.35,-509.28,-1269.04,-254.39,25.30,61.40,-53.66,14.25,-27.75,52.80,35.46,118.24,
06/01/2021,01:10:19.35,-503.91,-1204.10,-251.95,28.60,62.87,-51.46,13.05,-27.75,52.05,35.41,118.24,
06/01/2021,01:10:19.36,-519.53,-1169.43,-247.07,25.12,62.87,-48.41,13.05,-27.75,52.05,35.60,118.24,
06/01/2021,01:10:19.37,-476.07,-1105.96,-216.31,21.52,65.06,-38.72,13.20,-26.40,53.25,35.75,118.24,
06/01/2021,01:10:19.38,-470.21,-1079.10,-206.05,20.49,63.96,-37.32,13.20,-26.40,53.25,35.79,118.24,
06/01/2021,01:10:19.39,-459.96,-1046.39,-204.10,18.05,63.78,-33.60,13.95,-26.40,52.20,35.70,118.24,
06/01/2021,01:10:19.39,-474.61,-1038.09,-206.05,17.13,63.23,-32.44,14.55,-25.50,53.10,35.36,118.24,
06/01/2021,01:10:19.43,-451.66,-917.48,-187.99,8.66,69.57,-11.04,14.25,-26.25,52.35,35.46,118.24,
06/01/2021,01:10:19.44,-458.98,-899.41,-184.57,2.13,71.40,-6.59,14.55,-26.25,52.80,35.41,118.24,
06/01/2021,01:10:19.46,-435.55,-896.00,-168.46,-3.41,71.77,-2.07,14.55,-26.25,52.80,35.60,118.24,
06/01/2021,01:10:19.46,-432.62,-891.11,-163.09,-1.59,71.71,0.24,16.05,-25.50,52.35,35.55,118.24,
06/01/2021,01:10:19.47,-434.08,-888.67,-148.93,-5.85,70.12,2.32,16.05,-25.50,52.35,35.55,118.24,
06/01/2021,01:10:19.47,-432.62,-887.21,-146.48,-7.87,67.74,1.22,17.70,-26.10,50.70,35.55,118.24,
06/01/2021,01:10:19.48,-433.11,-888.67,-124.51,-11.04,67.26,2.50,16.65,-25.35,51.90,35.55,118.24,
06/01/2021,01:10:19.50,-424.80,-882.81,-97.66,-15.67,60.85,7.44,17.70,-24.90,49.65,35.70,118.24,
06/01/2021,01:10:19.50,-416.50,-892.09,-91.31,-17.13,56.16,9.33,17.40,-24.90,51.15,35.46,118.24,
06/01/2021,01:10:19.51,-404.79,-905.27,-74.71,-18.05,54.57,11.52,17.40,-24.90,51.15,35.55,118.24,
06/01/2021,01:10:19.51,-437.01,-924.80,-56.15,-19.15,53.60,13.48,17.40,-26.10,49.95,35.46,118.24,
06/01/2021,01:10:19.52,-421.39,-940.43,-53.22,-20.49,49.51,11.83,17.40,-26.10,49.95,35.46,118.24,
06/01/2021,01:10:19.54,-438.96,-969.73,-41.99,-25.49,42.38,16.04,17.70,-24.60,50.70,35.60,118.24,
06/01/2021,01:10:19.54,-435.06,-962.40,-24.41,-27.26,38.66,20.43,17.70,-24.60,50.70,35.60,118.24,
06/01/2021,01:10:19.55,-429.69,-960.45,-15.14,-26.52,36.46,24.02,17.70,-24.60,50.70,35.55,118.24,
06/01/2021,01:10:19.55,-417.97,-945.31,-25.88,-28.05,34.39,26.22,18.60,-25.80,48.75,35.55,118.24,
06/01/2021,01:10:19.56,-441.89,-935.06,-1.95,-29.27,30.06,28.23,18.60,-25.80,48.75,35.70,118.24,
06/01/2021,01:10:19.58,-441.89,-906.25,6.84,-27.07,23.11,37.13,19.80,-25.80,49.50,35.46,118.24,
06/01/2021,01:10:19.58,-452.15,-907.23,14.65,-30.37,24.15,42.07,17.70,-24.15,48.90,35.55,118.24,
06/01/2021,01:10:19.59,-432.62,-904.30,14.65,-27.26,20.37,44.76,17.70,-24.15,48.90,35.60,118.24,
06/01/2021,01:10:19.59,-432.62,-893.07,3.91,-29.63,21.89,48.60,19.95,-24.15,48.60,35.46,118.24,
06/01/2021,01:10:19.60,-437.50,-906.25,31.74,-28.54,17.50,52.32,19.95,-24.15,48.60,35.60,118.24,
06/01/2021,01:10:19.62,-407.71,-913.57,20.02,-26.77,16.65,60.30,20.85,-23.55,47.25,35.55,118.24,
06/01/2021,01:10:19.62,-405.27,-920.90,33.69,-26.34,16.77,63.23,20.70,-24.15,49.95,35.07,118.24,
06/01/2021,01:10:19.63,-407.71,-919.92,42.48,-25.67,12.74,65.85,20.70,-24.15,49.95,35.46,118.24,
06/01/2021,01:10:19.63,-398.44,-917.97,50.78,-25.49,11.95,70.06,20.70,-24.15,49.95,35.60,118.24,
06/01/2021,01:10:19.64,-386.23,-922.36,64.45,-22.99,9.76,76.04,20.70,-24.15,49.95,35.36,118.24,
06/01/2021,01:10:19.65,-386.72,-933.59,60.06,-24.02,7.13,75.37,21.00,-20.70,47.40,35.22,118.24,
06/01/2021,01:10:19.66,-368.16,-943.36,76.66,-21.77,1.89,84.51,21.90,-21.30,46.50,35.46,118.24,
06/01/2021,01:10:19.67,-356.93,-938.48,78.61,-18.72,0.24,86.16,21.90,-21.30,46.50,35.55,118.24,
06/01/2021,01:10:19.67,-361.33,-944.34,79.59,-21.52,-2.99,87.01,21.60,-20.10,46.50,35.55,118.24,
06/01/2021,01:10:19.68,-364.26,-953.61,86.43,-15.85,-5.18,89.94,21.60,-20.10,46.50,35.70,118.24,
06/01/2021,01:10:19.69,-346.19,-935.55,85.45,-16.04,-11.16,90.73,21.60,-20.55,47.25,35.60,118.24,
06/01/2021,01:10:19.70,-346.19,-944.82,88.38,-9.33,-15.98,92.68,21.00,-18.75,47.40,35.46,118.24,
06/01/2021,01:10:19.71,-341.31,-948.73,74.71,-8.48,-18.35,90.43,21.00,-18.75,47.40,35.46,118.24,
06/01/2021,01:10:19.71,-337.89,-947.27,79.59,-5.12,-19.21,92.74,21.90,-18.60,46.95,35.55,118.24,
06/01/2021,01:10:19.72,-332.52,-951.17,81.05,-5.18,-20.37,90.55,21.90,-18.60,46.95,35.07,118.24,
06/01/2021,01:10:19.73,-354.00,-948.73,72.27,-4.45,-21.16,91.59,21.90,-18.60,46.95,35.55,118.24,
06/01/2021,01:10:19.74,-335.94,-945.31,67.87,3.23,-19.51,89.09,22.65,-15.90,44.70,35.55,118.24,
06/01/2021,01:10:19.75,-328.61,-949.71,62.50,5.49,-20.43,87.44,22.65,-15.90,44.70,35.46,118.24,
06/01/2021,01:10:19.75,-328.12,-933.59,50.29,6.46,-21.46,81.83,21.60,-15.90,46.20,35.46,118.24,
06/01/2021,01:10:19.76,-351.56,-951.17,40.04,10.24,-18.60,78.96,21.60,-15.90,46.20,35.70,118.24,
06/01/2021,01:10:19.76,-338.38,-944.34,47.85,11.71,-16.89,78.48,21.60,-15.90,46.20,35.41,118.24,
06/01/2021,01:10:19.78,-326.66,-942.38,28.81,14.94,-13.54,66.71,21.00,-15.75,47.10,35.55,118.24,
06/01/2021,01:10:19.79,-324.71,-958.50,23.44,16.22,-13.05,66.71,21.00,-15.75,47.10,35.70,118.24,
06/01/2021,01:10:19.79,-323.73,-961.91,25.88,18.84,-9.70,61.65,19.20,-14.10,45.30,35.70,118.24,
06/01/2021,01:10:19.80,-326.17,-978.03,9.28,20.18,-8.23,57.32,19.20,-14.10,45.30,35.55,118.24,
06/01/2021,01:10:19.80,-317.38,-982.91,11.23,20.55,-8.54,55.37,19.20,-14.10,44.85,35.55,118.24,
06/01/2021,01:10:19.81,-328.61,-999.51,9.77,22.44,-10.91,50.12,19.35,-13.50,43.20,35.55,118.24,
06/01/2021,01:10:19.83,-325.20,-1038.09,-8.79,26.59,-5.43,36.95,19.05,-14.70,44.70,35.60,118.24,
06/01/2021,01:10:19.83,-338.87,-1045.41,-23.93,23.54,-5.12,33.90,19.05,-14.70,44.70,35.55,118.24,
06/01/2021,01:10:19.84,-335.45,-1059.08,-31.74,26.46,-2.87,28.90,19.05,-14.70,44.70,35.55,118.24,
06/01/2021,01:10:19.84,-330.08,-1056.64,-45.90,27.44,1.83,22.07,17.55,-14.40,45.75,35.70,118.24,
06/01/2021,01:10:19.85,-319.34,-1074.22,-59.08,30.12,2.68,18.96,17.55,-14.40,45.75,35.46,118.24,
06/01/2021,01:10:19.87,-339.84,-1085.45,-73.73,31.65,5.55,5.00,16.05,-14.70,43.65,35.46,118.24,
06/01/2021,01:10:19.87,-322.27,-1101.07,-89.36,31.89,6.95,-2.32,15.90,-14.55,45.60,35.46,118.24,
06/01/2021,01:10:19.88,-318.36,-1129.88,-83.98,33.72,6.65,-3.23,15.90,-14.55,45.60,35.70,118.24,
06/01/2021,01:10:19.88,-323.24,-1158.69,-81.05,34.94,7.20,-14.82,15.60,-15.45,45.45,35.55,118.24,
06/01/2021,01:10:19.89,-319.34,-1181.15,-81.54,37.44,7.44,-17.01,15.60,-15.45,45.45,35.46,118.24,
06/01/2021,01:10:19.94,-393.07,-1089.84,-301.27,50.79,5.91,-63.05,14.55,-16.20,46.20,35.79,118.24,
06/01/2021,01:10:19.95,-405.76,-984.38,-429.20,53.72,25.55,-73.54,14.55,-16.20,46.20,35.55,118.24,
06/01/2021,01:10:19.96,-429.20,-963.38,-479.98,54.02,37.80,-75.91,14.25,-17.10,49.05,35.36,118.24,
06/01/2021,01:10:19.96,-439.94,-946.78,-504.39,52.87,49.70,-78.54,14.40,-16.80,47.40,35.27,118.24,
06/01/2021,01:10:19.97,-430.18,-937.50,-536.62,52.32,61.40,-81.22,14.40,-16.80,47.40,35.60,118.24,
06/01/2021,01:10:19.98,-441.89,-913.09,-531.25,50.06,95.37,-90.91,13.05,-16.65,48.75,35.55,118.24,
06/01/2021,01:10:19.99,-455.08,-904.30,-524.90,46.40,104.88,-94.09,13.05,-16.65,48.75,35.55,118.24,
06/01/2021,01:10:20.00,-424.32,-911.62,-515.14,44.27,110.55,-94.82,14.70,-17.55,49.35,35.46,118.24,
06/01/2021,01:10:20.00,-408.69,-899.41,-484.86,42.44,119.27,-96.16,13.80,-15.90,49.05,35.70,118.24,
06/01/2021,01:10:20.01,-405.27,-903.32,-458.98,40.49,124.02,-94.21,13.80,-15.90,49.05,35.60,118.24,
06/01/2021,01:10:20.02,-369.14,-929.69,-423.34,31.77,120.67,-93.35,13.95,-17.25,49.65,35.55,118.24,
06/01/2021,01:10:20.03,-348.63,-956.05,-386.23,27.80,115.55,-90.43,13.95,-17.25,49.65,35.55,118.24,
06/01/2021,01:10:20.04,-329.59,-959.47,-359.86,23.35,106.52,-87.01,13.95,-17.25,49.65,35.07,118.24,
06/01/2021,01:10:20.04,-314.94,-976.56,-333.98,17.26,98.84,-83.54,14.25,-18.15,48.75,35.46,118.24,
06/01/2021,01:10:20.05,-292.48,-984.38,-307.62,12.26,87.74,-80.73,14.25,-18.15,48.75,35.55,118.24,
06/01/2021,01:10:20.06,-240.23,-1007.81,-245.12,-1.22,48.48,-67.44,16.35,-19.65,49.80,35.55,118.24,
06/01/2021,01:10:20.07,-232.91,-1006.35,-219.24,-6.10,30.67,-67.13,16.35,-19.65,49.80,35.75,118.24,
06/01/2021,01:10:20.08,-229.98,-1027.34,-213.38,-8.66,11.40,-59.33,15.30,-18.60,48.00,35.55,118.24,
06/01/2021,01:10:20.08,-247.07,-1036.62,-199.71,-18.41,-9.27,-51.22,14.70,-17.55,50.40,35.60,118.24,
06/01/2021,01:10:20.09,-242.68,-1061.04,-187.99,-22.87,-24.02,-45.67,14.70,-17.55,50.40,35.46,118.24,
06/01/2021,01:10:20.10,-295.90,-1056.15,-189.94,-33.17,-63.72,-28.90,14.85,-17.40,49.50,35.46,118.24,
