rtcDate,rtcTime,aX,aY,aZ,gX,gY,gZ,mX,mY,mZ,imu_degC,output_Hz,
06/01/2021,01:09:07.51,281.74,-895.02,95.70,-7.56,-23.60,-12.01,-64.05,22.95,-3.60,35.55,119.98,
06/01/2021,01:09:07.55,-136.72,-1114.26,0.98,12.50,1.16,3.29,-64.20,22.35,-4.20,35.27,119.98,
06/01/2021,01:09:07.57,-193.36,-1102.05,-26.37,10.30,8.90,19.09,-64.20,22.35,-4.20,35.36,119.98,
06/01/2021,01:09:07.57,-210.94,-1078.12,-41.50,9.76,12.44,23.23,-64.95,22.05,-3.00,35.55,119.98,
06/01/2021,01:09:07.58,-194.34,-1044.43,-41.99,10.37,13.72,26.89,-64.95,22.05,-3.00,35.27,119.98,
06/01/2021,01:09:07.60,-135.25,-953.12,-53.71,5.24,20.12,30.30,-64.50,23.25,-4.50,35.55,119.98,
06/01/2021,01:09:07.60,-100.10,-912.60,-52.25,2.80,19.33,28.11,-64.50,23.25,-4.50,35.55,119.98,
06/01/2021,01:09:07.61,-72.27,-885.74,-65.43,1.16,20.06,24.94,-65.25,24.00,-3.00,35.27,119.98,
06/01/2021,01:09:07.61,-43.46,-854.49,-75.20,-1.77,20.91,22.13,-64.35,23.40,-3.90,35.75,119.98,
06/01/2021,01:09:07.62,-15.14,-844.24,-87.40,-3.41,20.00,18.72,-64.35,23.40,-3.90,35.60,119.98,
06/01/2021,01:09:07.63,22.46,-843.26,-94.24,-5.98,24.57,10.37,-64.05,22.20,-3.90,35.55,119.98,
06/01/2021,01:09:07.64,44.43,-853.52,-83.98,-6.59,27.99,8.96,-64.05,22.20,-3.90,35.55,119.98,
06/01/2021,01:09:07.65,50.29,-852.54,-102.05,-3.35,28.05,7.07,-64.05,23.70,-3.90,35.36,119.98,
06/01/2021,01:09:07.65,89.36,-854.98,-94.73,-3.96,28.35,9.76,-64.05,23.70,-3.90,35.27,119.98,
06/01/2021,01:09:07.66,86.43,-860.35,-102.54,-2.99,33.60,7.68,-64.05,23.70,-3.90,35.46,119.98,
06/01/2021,01:09:07.66,112.30,-865.72,-98.14,-2.32,33.90,4.27,-62.10,24.60,-4.65,35.46,119.98,
06/01/2021,01:09:07.68,108.89,-884.28,-78.12,0.79,33.48,-1.34,-62.10,24.60,-4.65,35.22,119.98,
06/01/2021,01:09:07.69,100.10,-886.72,-87.40,1.95,32.87,2.99,-65.85,23.40,-1.80,35.17,119.98,
06/01/2021,01:09:07.69,97.66,-895.02,-85.94,3.05,31.40,1.83,-65.85,23.40,-1.80,35.27,119.98,
06/01/2021,01:09:07.70,89.36,-900.39,-86.43,1.28,32.07,0.30,-63.00,24.30,-3.75,35.55,119.98,
06/01/2021,01:09:07.70,86.91,-913.09,-88.38,4.02,28.78,2.62,-63.00,24.30,-3.75,35.36,119.98,
06/01/2021,01:09:07.72,86.43,-925.29,-83.98,2.87,30.43,2.62,-64.95,23.55,-4.20,35.36,119.98,
06/01/2021,01:09:07.72,100.10,-914.55,-105.47,5.61,27.50,6.34,-66.45,22.80,-2.25,35.27,119.98,
06/01/2021,01:09:07.73,90.33,-913.57,-110.35,3.41,27.56,6.71,-66.45,22.80,-2.25,35.36,119.98,
06/01/2021,01:09:07.74,87.40,-911.13,-114.75,5.00,27.44,6.22,-64.50,23.25,-3.45,35.22,119.98,
06/01/2021,01:09:07.74,101.56,-913.09,-110.84,2.56,28.35,7.44,-64.50,23.25,-3.45,35.27,119.98,
06/01/2021,01:09:07.75,99.12,-907.23,-126.46,1.95,28.60,5.43,-64.50,23.25,-3.45,35.27,119.98,
06/01/2021,01:09:07.76,83.50,-907.23,-130.86,0.79,28.29,7.80,-66.00,23.55,-3.45,35.27,119.98,
06/01/2021,01:09:07.77,60.06,-904.79,-123.05,0.12,25.43,13.54,-66.00,23.55,-3.45,35.27,119.98,
06/01/2021,01:09:07.77,60.06,-914.06,-117.19,1.16,26.22,11.89,-66.60,24.60,-3.60,35.46,119.98,
06/01/2021,01:09:07.78,26.37,-911.13,-114.26,0.43,24.09,10.85,-66.60,24.60,-3.60,35.36,119.98,
06/01/2021,01:09:07.79,41.99,-910.16,-110.35,-0.49,23.66,12.50,-66.00,24.00,-3.45,35.36,119.98,
06/01/2021,01:09:07.80,25.39,-922.36,-89.84,1.95,23.17,12.68,-65.10,23.40,-1.80,35.55,119.98,
06/01/2021,01:09:07.81,30.27,-947.27,-98.14,2.56,22.62,12.80,-67.20,24.30,-1.20,35.27,119.98,
06/01/2021,01:09:07.81,34.18,-965.82,-96.19,4.21,20.79,14.82,-67.20,24.30,-1.20,35.60,119.98,
06/01/2021,01:09:07.82,29.79,-968.26,-109.86,1.83,24.09,12.87,-65.25,24.00,-3.00,35.27,119.98,
06/01/2021,01:09:07.82,35.16,-987.79,-126.95,-1.77,25.73,11.46,-65.85,25.35,-3.00,35.55,119.98,
06/01/2021,01:09:07.84,0.49,-1081.05,-163.57,-4.51,25.55,12.07,-65.85,25.35,-3.60,35.46,119.98,
06/01/2021,01:09:07.85,-9.28,-1115.23,-184.57,-6.40,30.06,10.73,-68.25,22.80,-1.20,35.46,119.98,
06/01/2021,01:09:07.85,-9.28,-1148.93,-214.84,-11.52,26.59,9.51,-68.25,22.80,-1.20,35.60,119.98,
06/01/2021,01:09:07.86,-18.07,-1173.83,-228.52,-13.05,29.94,12.74,-68.25,22.80,-1.20,35.27,119.98,
06/01/2021,01:09:07.86,-10.74,-1200.68,-245.61,-16.22,36.10,12.20,-68.25,22.80,-1.20,35.22,119.98,
06/01/2021,01:09:07.88,-45.41,-1215.82,-291.99,-23.11,43.72,10.49,-67.20,24.75,-3.00,35.27,119.98,
06/01/2021,01:09:07.89,-43.95,-1213.38,-310.06,-25.73,46.46,12.44,-66.15,24.15,-3.00,35.22,119.98,
06/01/2021,01:09:07.89,-90.82,-1238.28,-296.88,-27.80,45.30,11.89,-66.15,24.15,-2.10,35.07,119.98,
06/01/2021,01:09:07.90,-115.72,-1290.53,-285.16,-30.61,47.20,11.04,-66.75,25.50,-3.45,35.55,119.98,
06/01/2021,01:09:07.90,-133.30,-1357.42,-236.82,-33.66,47.01,10.43,-66.75,25.50,-3.45,35.36,119.98,
06/01/2021,01:09:07.91,-123.54,-1425.78,-160.16,-35.00,45.61,13.23,-66.45,23.55,-3.75,35.60,119.98,
06/01/2021,01:09:07.93,-37.60,-1393.55,77.64,-37.38,47.44,3.54,-67.50,25.05,-3.45,35.55,119.98,
06/01/2021,01:09:07.93,14.65,-1312.01,141.60,-35.98,46.10,2.32,-67.50,25.05,-3.45,35.36,119.98,
06/01/2021,01:09:07.94,68.85,-1227.54,149.41,-30.73,47.20,2.87,-67.20,24.00,-4.20,35.41,119.98,
06/01/2021,01:09:07.94,96.68,-1162.11,113.28,-23.96,41.04,1.34,-67.20,24.00,-4.20,35.55,119.98,
06/01/2021,01:09:07.95,90.82,-1109.38,57.13,-18.96,33.41,0.67,-67.20,24.00,-4.20,35.27,119.98,
06/01/2021,01:09:07.96,48.83,-1110.84,-100.10,2.93,26.83,-3.90,-66.75,24.75,-4.80,35.22,119.98,
06/01/2021,01:09:07.97,41.50,-1100.59,-131.84,6.34,24.88,-4.88,-69.15,24.60,-2.85,35.36,119.98,
06/01/2021,01:09:07.98,17.09,-1091.80,-146.97,6.89,33.29,-7.68,-69.15,24.60,-2.85,35.60,119.98,
06/01/2021,01:09:07.98,-6.84,-1056.15,-133.30,6.16,40.91,-7.13,-67.95,25.80,-3.75,35.36,119.98,
06/01/2021,01:09:07.99,-35.64,-1006.84,-99.12,5.49,48.41,-11.89,-68.55,24.75,-3.45,35.36,119.98,
06/01/2021,01:09:08.00,-135.74,-886.23,15.62,1.16,66.95,-12.62,-68.85,23.70,-2.10,35.41,119.98,
06/01/2021,01:09:08.01,-164.06,-861.33,66.89,0.06,71.95,-11.95,-71.10,24.60,-0.60,35.36,119.98,
06/01/2021,01:09:08.02,-209.96,-828.61,105.47,1.22,73.23,-9.21,-71.10,24.60,-0.60,35.22,119.98,
06/01/2021,01:09:08.02,-240.23,-830.08,123.54,0.61,76.22,-9.21,-71.10,24.60,-0.60,35.46,119.98,
06/01/2021,01:09:08.03,-251.46,-831.54,164.06,2.99,77.01,-7.62,-71.10,24.60,-0.60,35.36,119.98,
06/01/2021,01:09:08.07,-102.54,-1000.49,-8.30,7.20,44.45,2.44,-71.70,26.40,-1.80,35.22,119.98,
06/01/2021,01:09:08.08,-5.37,-1031.74,-44.43,0.43,29.57,6.59,-70.50,25.05,1.20,35.46,119.98,
06/01/2021,01:09:08.09,33.20,-1059.08,-62.99,-3.41,24.09,4.57,-70.50,25.05,1.20,35.41,119.98,
06/01/2021,01:09:08.10,71.29,-1065.92,-53.22,-4.63,20.73,4.21,-70.50,25.05,1.20,35.60,119.98,
06/01/2021,01:09:08.10,114.26,-1082.03,-58.59,-6.34,18.96,2.20,-70.80,26.25,-1.95,35.55,119.98,
06/01/2021,01:09:08.11,131.84,-1062.01,-56.64,-4.88,19.51,-1.22,-70.80,26.25,-1.95,35.46,119.98,
06/01/2021,01:09:08.12,159.67,-1007.32,-46.88,-3.05,14.88,-6.34,-73.05,26.25,-0.15,35.07,119.98,
06/01/2021,01:09:08.13,152.83,-987.79,-38.09,0.49,18.29,-7.44,-73.05,26.25,-0.15,35.60,119.98,
06/01/2021,01:09:08.13,132.81,-946.78,-53.71,0.00,19.82,-12.32,-73.50,26.25,-0.90,35.55,119.98,
06/01/2021,01:09:08.14,103.03,-926.27,-76.17,4.27,19.27,-11.83,-72.75,27.00,-1.20,35.27,119.98,
06/01/2021,01:09:08.15,78.61,-924.32,-77.15,6.22,21.83,-16.89,-72.75,27.00,-1.20,35.07,119.98,
06/01/2021,01:09:08.16,6.35,-884.77,-105.47,11.89,19.82,-16.65,-73.80,25.80,1.50,35.22,119.98,
06/01/2021,01:09:08.17,18.07,-860.35,-102.54,16.71,20.49,-16.22,-73.80,25.80,1.50,35.27,119.98,
06/01/2021,01:09:08.17,-13.67,-867.19,-102.54,18.05,18.84,-14.45,-71.40,28.80,-0.60,35.46,119.98,
06/01/2021,01:09:08.18,-34.18,-858.40,-114.75,18.17,22.62,-11.65,-71.40,28.80,-0.60,35.60,119.98,
06/01/2021,01:09:08.19,-42.48,-857.42,-123.54,20.73,19.63,-10.06,-71.40,28.80,-0.60,35.41,119.98,
06/01/2021,01:09:08.20,-84.47,-834.47,-107.91,15.98,17.20,-6.59,-72.45,28.35,0.30,35.46,119.98,
06/01/2021,01:09:08.21,-108.40,-846.19,-106.93,14.70,14.09,-6.59,-72.45,28.35,0.30,35.55,119.98,
06/01/2021,01:09:08.21,-99.12,-838.38,-109.38,15.67,11.34,-2.74,-74.40,27.60,1.35,35.27,119.98,
06/01/2021,01:09:08.22,-104.98,-824.22,-120.12,13.72,7.80,-5.24,-74.40,27.60,1.35,35.07,119.98,
06/01/2021,01:09:08.23,-84.96,-838.87,-112.79,12.44,6.77,0.37,-74.40,29.55,1.80,35.41,119.98,
06/01/2021,01:09:08.24,-43.46,-877.93,-132.32,15.00,-2.13,2.13,-75.30,28.95,2.25,35.55,119.98,
06/01/2021,01:09:08.25,-29.79,-910.16,-134.77,13.41,-2.80,1.34,-74.55,27.45,3.45,35.27,119.98,
06/01/2021,01:09:08.25,-23.93,-922.85,-125.49,11.83,-3.96,2.80,-74.10,28.50,3.00,35.27,119.98,
06/01/2021,01:09:08.26,-26.37,-940.43,-135.74,11.28,-5.06,0.18,-74.10,28.50,3.00,35.36,119.98,
06/01/2021,01:09:08.26,-31.25,-946.29,-143.07,11.95,-6.40,-0.06,-75.45,28.80,2.55,35.27,119.98,
06/01/2021,01:09:08.27,-33.20,-958.01,-140.62,14.02,-5.61,1.34,-75.45,28.80,2.55,35.60,119.98,
06/01/2021,01:09:08.30,-62.01,-947.75,-156.25,15.73,2.56,-6.52,-78.30,27.00,4.50,35.60,119.98,
06/01/2021,01:09:08.31,-79.59,-948.73,-172.85,12.26,8.35,-11.28,-79.35,26.25,7.35,35.07,119.98,
06/01/2021,01:09:08.31,-74.22,-927.73,-170.41,8.41,12.32,-8.60,-75.45,28.80,4.65,35.17,119.98,
06/01/2021,01:09:08.32,-94.24,-924.80,-159.18,7.13,14.70,-9.63,-75.45,28.80,4.65,35.55,119.98,
06/01/2021,01:09:08.32,-82.52,-923.34,-169.43,2.44,19.27,-8.41,-76.05,29.70,4.20,35.55,119.98,
06/01/2021,01:09:08.34,-67.87,-916.50,-173.83,-1.10,20.43,-11.04,-76.95,28.05,6.15,35.55,119.98,
06/01/2021,01:09:08.35,-51.76,-934.57,-185.55,-4.21,21.28,-11.65,-76.05,27.00,9.30,35.36,119.98,
06/01/2021,01:09:08.35,-44.92,-944.34,-187.50,-9.63,18.05,-11.59,-76.05,27.00,9.30,35.55,119.98,
06/01/2021,01:09:08.36,-21.97,-946.29,-194.34,-8.35,16.71,-12.01,-75.60,30.45,6.75,35.55,119.98,
06/01/2021,01:09:08.36,-24.41,-966.31,-143.55,-8.78,17.32,-9.82,-75.60,30.45,6.75,35.75,119.98,
06/01/2021,01:09:08.38,-26.37,-977.05,-129.39,-11.46,15.30,-10.55,-75.90,28.35,7.95,35.36,119.98,
06/01/2021,01:09:08.38,-41.02,-997.07,-117.68,-8.96,17.68,-8.11,-75.90,28.35,7.95,35.27,119.98,
06/01/2021,01:09:08.39,-38.09,-999.02,-109.86,-7.13,23.60,-9.39,-75.90,28.35,7.95,35.36,119.98,
06/01/2021,01:09:08.40,-43.46,-1018.55,-121.58,-9.09,25.18,-8.23,-74.40,29.55,7.65,35.55,119.98,
06/01/2021,01:09:08.40,-42.48,-1034.18,-137.21,-11.95,29.70,-8.96,-74.40,29.55,7.65,35.36,119.98,
06/01/2021,01:09:08.41,-42.97,-1054.20,-178.71,-14.09,32.87,-6.10,-73.65,28.80,8.40,35.36,119.98,
06/01/2021,01:09:08.42,6.84,-1134.77,-314.45,-26.34,33.05,-7.07,-74.55,27.45,9.00,35.36,119.98,
06/01/2021,01:09:08.43,58.59,-1172.85,-359.38,-31.95,28.29,-7.26,-74.55,27.45,10.65,35.27,119.98,
06/01/2021,01:09:08.44,109.38,-1228.03,-416.50,-39.76,23.60,-7.38,-73.50,30.45,10.65,35.60,119.98,
06/01/2021,01:09:08.44,160.64,-1274.41,-423.83,-50.12,15.98,-12.56,-73.50,30.45,10.65,35.55,119.98,
06/01/2021,01:09:08.45,248.05,-1341.80,-397.95,-59.02,7.26,-20.12,-73.20,28.80,10.95,35.55,119.98,
06/01/2021,01:09:08.46,326.17,-1535.16,-163.57,-67.80,-25.30,-26.89,-73.20,28.80,10.95,35.36,119.98,
06/01/2021,01:09:08.47,319.82,-1568.85,-55.66,-63.35,-36.10,-30.00,-74.40,28.05,13.80,35.55,119.98,
06/01/2021,01:09:08.48,231.45,-1540.04,53.71,-57.38,-33.54,-27.26,-74.40,28.05,13.80,35.60,119.98,
06/01/2021,01:09:08.48,139.65,-1471.19,112.30,-41.28,-24.82,-27.99,-74.40,28.05,13.80,35.55,119.98,
06/01/2021,01:09:08.49,22.95,-1362.79,173.83,-25.18,-7.26,-21.10,-72.15,29.10,11.70,35.07,119.98,
06/01/2021,01:09:08.50,-128.91,-1187.99,170.90,21.22,32.62,-1.40,-71.25,28.50,11.40,35.27,119.98,
06/01/2021,01:09:08.51,-132.32,-1153.32,145.51,29.51,36.04,6.04,-72.45,29.10,13.80,35.46,119.98,
06/01/2021,01:09:08.51,-139.16,-1103.03,133.30,34.70,41.59,10.73,-72.45,29.10,13.80,35.41,119.98,
06/01/2021,01:09:08.52,-112.30,-1041.50,109.86,34.02,43.54,13.60,-71.25,29.70,11.40,35.55,119.98,
06/01/2021,01:09:08.53,-74.22,-983.40,73.73,29.33,47.26,13.78,-71.25,29.70,11.40,35.22,119.98,
06/01/2021,01:09:08.54,44.43,-815.43,2.93,23.17,46.77,19.09,-69.60,29.55,13.50,35.46,119.98,
06/01/2021,01:09:08.57,203.12,-674.32,-16.11,-0.12,-24.94,4.94,-68.85,28.35,15.30,35.27,119.98,
06/01/2021,01:09:08.59,139.65,-795.90,45.90,-3.11,-38.84,6.40,-69.90,28.05,16.35,35.46,119.98,
06/01/2021,01:09:08.60,105.96,-869.14,60.55,-0.85,-36.71,2.26,-69.90,28.05,16.35,35.60,119.98,
06/01/2021,01:09:08.60,72.75,-880.37,56.64,1.04,-30.55,0.79,-69.90,30.30,14.85,35.36,119.98,
06/01/2021,01:09:08.62,22.95,-1027.83,1.46,21.16,-2.07,1.10,-68.10,29.55,13.05,35.36,119.98,
06/01/2021,01:09:08.62,-2.93,-1084.96,-10.25,26.04,8.23,2.68,-68.10,29.55,13.05,35.22,119.98,
06/01/2021,01:09:08.63,-13.67,-1178.22,-25.88,34.70,16.22,2.50,-67.95,30.45,14.70,35.55,119.98,
06/01/2021,01:09:08.63,-18.55,-1236.33,-62.01,37.74,24.21,7.56,-67.95,30.45,14.70,35.36,119.98,
06/01/2021,01:09:08.64,-0.49,-1265.62,-54.69,34.33,28.29,7.93,-67.95,30.45,14.70,35.60,119.98,
06/01/2021,01:09:08.65,27.83,-1276.37,-59.57,32.38,29.70,11.34,-67.95,30.45,14.70,35.46,119.98,
06/01/2021,01:09:08.66,70.80,-1187.01,-24.90,21.95,23.41,14.94,-66.90,30.75,16.05,35.22,119.98,
06/01/2021,01:09:08.67,64.94,-1128.42,-46.88,18.48,20.00,17.44,-66.75,29.40,17.25,35.46,119.98,
06/01/2021,01:09:08.67,97.17,-1076.66,-40.04,14.09,14.33,14.88,-66.75,29.40,17.25,35.70,119.98,
06/01/2021,01:09:08.68,78.12,-1021.00,-58.11,14.27,14.76,15.67,-65.85,31.50,15.30,35.36,119.98,
06/01/2021,01:09:08.69,91.80,-947.27,-84.47,16.52,9.33,15.43,-65.85,31.50,15.30,35.46,119.98,
06/01/2021,01:09:08.70,96.68,-862.30,-140.62,14.27,9.45,12.01,-66.75,29.70,16.20,35.55,119.98,
06/01/2021,01:09:08.71,78.12,-853.52,-150.88,15.55,10.18,11.10,-66.75,29.70,16.20,35.70,119.98,
06/01/2021,01:09:08.71,72.75,-843.26,-169.92,12.56,14.76,8.66,-66.75,29.70,16.20,35.55,119.98,
06/01/2021,01:09:08.72,83.98,-817.87,-173.83,12.07,14.94,8.35,-66.75,30.90,15.15,35.07,119.98,
06/01/2021,01:09:08.72,69.34,-814.45,-172.85,8.72,15.24,7.26,-66.75,30.90,15.15,35.75,119.98,
06/01/2021,01:09:08.74,37.11,-838.38,-148.44,6.04,17.38,7.62,-66.45,29.40,17.70,35.60,119.98,
06/01/2021,01:09:08.75,23.93,-856.93,-128.42,6.16,17.38,9.88,-66.45,29.40,17.70,35.70,119.98,
06/01/2021,01:09:08.75,26.37,-861.82,-113.28,4.45,17.80,8.23,-64.05,31.05,16.35,35.60,119.98,
06/01/2021,01:09:08.76,30.76,-879.39,-101.56,-0.67,22.32,8.41,-64.05,31.05,16.35,35.27,119.98,
06/01/2021,01:09:08.76,26.86,-900.88,-87.89,-2.13,24.21,11.28,-65.10,31.50,17.10,35.22,119.98,
06/01/2021,01:09:08.77,31.74,-911.62,-65.43,-5.43,22.99,8.84,-65.10,29.55,17.10,35.27,119.98,
06/01/2021,01:09:08.78,96.19,-941.41,-32.71,-8.41,25.79,7.93,-66.45,31.65,17.70,35.60,119.98,
06/01/2021,01:09:08.79,112.79,-945.31,-25.39,-9.63,26.34,9.39,-65.85,30.75,17.55,35.55,119.98,
06/01/2021,01:09:08.80,138.67,-952.64,-23.44,-12.07,27.74,8.05,-65.85,30.75,17.55,35.41,119.98,
06/01/2021,01:09:08.80,166.02,-957.03,-36.62,-11.83,28.60,5.55,-65.85,30.75,17.55,35.55,119.98,
06/01/2021,01:09:08.81,175.29,-953.61,-44.43,-11.22,28.84,2.68,-65.85,30.75,17.55,35.27,119.98,
06/01/2021,01:09:08.82,205.08,-945.31,-62.01,-12.93,29.94,-3.78,-64.35,31.05,17.55,35.55,119.98,
06/01/2021,01:09:08.83,209.96,-943.36,-86.91,-13.29,29.63,-3.60,-64.95,30.45,18.75,35.55,119.98,
06/01/2021,01:09:08.84,208.98,-932.13,-80.57,-12.56,27.07,-6.83,-64.95,30.45,18.75,35.27,119.98,
06/01/2021,01:09:08.84,222.17,-930.66,-101.07,-11.40,24.33,-3.54,-63.75,31.20,18.00,35.55,119.98,
06/01/2021,01:09:08.85,223.14,-934.08,-98.14,-12.87,23.54,-7.68,-63.75,31.20,18.00,35.17,119.98,
06/01/2021,01:09:08.86,200.68,-909.18,-114.26,-13.60,17.32,-5.00,-64.80,29.55,19.65,35.36,119.98,
06/01/2021,01:09:08.87,212.89,-915.04,-116.70,-12.44,17.87,-6.10,-64.80,29.55,19.65,35.22,119.98,
06/01/2021,01:09:08.88,208.50,-911.62,-113.77,-13.29,12.38,-2.20,-63.75,32.40,18.00,35.46,119.98,
06/01/2021,01:09:08.88,205.08,-917.48,-90.33,-13.05,12.56,-3.78,-65.85,31.80,18.60,35.07,119.98,
06/01/2021,01:09:08.89,212.89,-943.36,-108.89,-14.33,16.28,-4.15,-65.85,31.80,18.60,35.55,119.98,
06/01/2021,01:09:08.90,223.63,-949.22,-104.98,-13.23,8.90,-0.37,-64.20,30.15,18.00,35.07,119.98,
06/01/2021,01:09:08.91,204.59,-953.12,-102.05,-13.11,7.13,-2.93,-64.20,30.15,18.00,35.36,119.98,
06/01/2021,01:09:08.91,196.78,-967.77,-106.45,-11.89,5.79,2.20,-64.20,30.15,18.00,35.36,119.98,
06/01/2021,01:09:08.92,183.59,-976.07,-109.86,-12.32,5.73,4.02,-64.20,30.15,18.00,35.22,119.98,
06/01/2021,01:09:08.93,187.50,-965.82,-121.58,-8.54,6.10,1.59,-62.70,30.45,17.25,35.55,119.98,
06/01/2021,01:09:08.93,174.80,-971.68,-144.53,-7.68,7.26,3.66,-63.75,31.65,15.90,35.46,119.98,
06/01/2021,01:09:08.95,169.92,-1032.23,-197.27,-7.74,7.87,3.29,-62.55,30.75,17.55,35.27,119.98,
06/01/2021,01:09:08.95,165.53,-1033.20,-216.80,-11.52,9.39,1.65,-64.20,30.45,18.45,35.60,119.98,
06/01/2021,01:09:08.96,153.32,-1062.01,-230.47,-12.50,9.51,2.20,-64.20,30.45,18.45,35.46,119.98,
06/01/2021,01:09:08.97,150.39,-1091.80,-263.67,-14.82,6.34,1.46,-62.55,33.00,16.35,35.55,119.98,
06/01/2021,01:09:08.97,151.37,-1123.54,-282.23,-17.68,5.61,1.34,-62.55,33.00,16.35,35.46,119.98,
06/01/2021,01:09:08.99,106.93,-1272.46,-283.20,-27.32,3.48,0.18,-62.25,30.45,17.25,35.36,119.98,
06/01/2021,01:09:08.99,97.17,-1356.93,-247.07,-28.96,2.38,-3.60,-64.20,30.15,17.70,35.27,119.98,
06/01/2021,01:09:09.00,92.77,-1416.99,-152.34,-31.10,4.09,-4.76,-64.20,30.15,17.70,35.27,119.98,
06/01/2021,01:09:09.01,103.52,-1470.70,-62.01,-28.11,3.35,-7.38,-62.25,32.40,15.90,35.55,119.98,
06/01/2021,01:09:09.01,97.66,-1443.36,10.25,-26.34,0.98,-9.09,-62.25,32.40,15.90,35.41,119.98,
06/01/2021,01:09:09.03,103.52,-1202.64,125.49,-10.61,-8.11,-7.26,-61.65,29.70,17.25,35.55,119.98,
06/01/2021,01:09:09.03,121.58,-1145.02,101.56,-3.35,-17.13,-4.63,-64.20,30.90,16.20,35.17,119.98,
06/01/2021,01:09:09.04,116.21,-1104.49,61.04,7.68,-26.10,-6.04,-64.20,30.90,16.20,34.93,119.98,
06/01/2021,01:09:09.05,129.88,-1098.14,-4.39,14.70,-35.06,-1.71,-61.35,30.75,16.35,35.36,119.98,
06/01/2021,01:09:09.05,155.27,-1103.03,-53.71,22.32,-35.67,-5.49,-61.35,30.75,16.35,35.60,119.98,
06/01/2021,01:09:09.09,-32.71,-930.18,-76.66,16.65,-6.22,-13.35,-62.70,30.45,16.95,35.55,119.98,
06/01/2021,01:09:09.11,-114.75,-863.77,31.74,22.68,-2.13,-15.73,-61.20,30.90,15.90,35.22,119.98,
06/01/2021,01:09:09.11,-143.07,-827.64,71.29,27.07,-2.62,-17.13,-61.20,30.90,15.90,35.07,119.98,
06/01/2021,01:09:09.12,-174.80,-833.50,99.61,32.20,-3.78,-14.51,-59.85,33.30,14.25,35.36,119.98,
06/01/2021,01:09:09.13,-194.34,-855.96,115.72,32.26,-1.28,-13.90,-59.85,33.00,15.60,35.60,119.98,
06/01/2021,01:09:09.13,-199.71,-867.68,124.51,33.90,-0.98,-10.67,-59.85,33.00,15.60,35.55,119.98,
06/01/2021,01:09:09.15,-209.47,-936.52,117.68,31.71,-1.46,-4.15,-59.55,32.55,14.55,35.36,119.98,
06/01/2021,01:09:09.15,-203.12,-946.78,96.68,24.33,-3.11,1.71,-59.55,32.55,14.55,35.22,119.98,
06/01/2021,01:09:09.16,-191.41,-952.15,73.24,19.76,-11.28,0.43,-59.55,35.25,14.25,35.60,119.98,
06/01/2021,01:09:09.17,-144.04,-962.89,37.60,16.16,-14.76,2.56,-59.55,35.25,14.25,35.55,119.98,
06/01/2021,01:09:09.17,-97.66,-982.42,-6.35,8.84,-21.89,3.17,-59.55,35.25,14.25,35.55,119.98,
06/01/2021,01:09:09.19,18.55,-1031.25,-118.16,-3.90,-35.43,6.52,-61.95,32.40,16.20,35.03,119.98,
06/01/2021,01:09:09.19,80.08,-1046.39,-124.51,-7.13,-38.41,4.51,-61.95,32.40,16.20,35.07,119.98,
06/01/2021,01:09:09.20,121.58,-1054.69,-118.16,-10.73,-41.77,1.16,-58.80,34.50,13.05,35.60,119.98,
06/01/2021,01:09:09.20,153.81,-1060.06,-94.73,-12.50,-50.18,-1.65,-58.80,34.50,13.05,35.27,119.98,
06/01/2021,01:09:09.21,154.79,-1059.08,-67.87,-13.11,-51.22,-7.07,-58.65,34.65,13.95,35.55,119.98,
06/01/2021,01:09:09.23,214.36,-1061.52,-30.76,-16.04,-60.55,-14.94,-59.40,34.35,13.20,35.17,119.98,
06/01/2021,01:09:09.23,225.10,-1021.00,-11.23,-16.89,-61.83,-17.50,-60.45,33.90,15.15,35.55,119.98,
06/01/2021,01:09:09.24,223.14,-1018.07,-3.91,-14.76,-61.52,-23.11,-60.45,33.90,15.15,35.36,119.98,
06/01/2021,01:09:09.24,214.36,-1001.46,2.44,-7.32,-63.90,-21.59,-60.45,33.90,15.15,35.41,119.98,
06/01/2021,01:09:09.25,191.41,-986.33,2.44,-2.07,-65.37,-23.17,-59.55,34.95,13.05,35.27,119.98,
06/01/2021,01:09:09.27,149.90,-934.08,-13.18,12.13,-60.98,-23.60,-59.55,34.95,13.05,35.55,119.98,
06/01/2021,01:09:09.27,118.65,-926.76,-39.06,15.79,-60.12,-24.82,-61.05,34.50,12.30,35.36,119.98,
06/01/2021,01:09:09.28,95.70,-915.04,-39.55,18.96,-59.33,-23.17,-59.55,36.00,11.25,35.07,119.98,
06/01/2021,01:09:09.28,83.01,-898.44,-62.50,18.05,-58.90,-19.33,-59.55,36.00,11.25,35.60,119.98,
06/01/2021,01:09:09.29,62.50,-880.37,-61.52,20.18,-57.93,-19.33,-59.40,35.55,10.35,35.75,119.98,
06/01/2021,01:09:09.30,16.60,-870.61,-89.84,16.04,-65.49,-16.10,-58.65,37.05,10.65,35.46,119.98,
06/01/2021,01:09:09.31,-3.42,-859.38,-89.36,16.59,-70.12,-15.61,-60.90,35.55,12.90,35.36,119.98,
06/01/2021,01:09:09.32,-10.74,-851.56,-86.91,15.37,-73.72,-11.89,-60.90,35.55,12.90,35.55,119.98,
06/01/2021,01:09:09.32,-29.30,-833.50,-84.96,16.22,-77.13,-12.32,-59.85,35.70,10.95,35.36,119.98,
06/01/2021,01:09:09.33,-19.04,-843.75,-79.59,15.61,-77.99,-10.00,-59.85,35.70,10.95,35.55,119.98,
06/01/2021,01:09:09.33,-31.25,-847.66,-62.99,17.26,-83.41,-9.51,-59.85,35.70,10.95,35.55,119.98,
06/01/2021,01:09:09.35,-44.92,-881.84,-44.43,21.71,-89.94,-5.43,-59.85,37.95,9.45,35.46,119.98,
06/01/2021,01:09:09.36,-49.80,-899.90,-43.46,21.10,-93.84,1.46,-59.85,37.95,9.45,35.22,119.98,
06/01/2021,01:09:09.36,-46.88,-929.20,-55.18,23.54,-92.80,-3.35,-61.20,38.55,8.55,35.60,119.98,
06/01/2021,01:09:09.37,-50.78,-941.89,-47.36,24.09,-93.05,-3.54,-61.20,38.55,8.55,35.36,119.98,
06/01/2021,01:09:09.37,-52.73,-949.22,-74.71,26.22,-92.07,0.30,-59.40,35.85,6.75,35.03,119.98,
06/01/2021,01:09:09.39,-57.62,-960.45,-90.82,22.07,-88.60,0.98,-61.65,36.30,9.60,35.55,119.98,
06/01/2021,01:09:09.40,-71.78,-953.12,-95.70,23.84,-82.56,-2.50,-61.65,36.30,9.60,35.55,119.98,
06/01/2021,01:09:09.40,-69.82,-971.19,-113.28,22.20,-82.50,-3.11,-61.95,36.60,5.55,35.60,119.98,
06/01/2021,01:09:09.41,-67.87,-955.57,-122.07,23.05,-84.39,-2.32,-61.95,36.60,5.55,35.36,119.98,
06/01/2021,01:09:09.41,-70.31,-953.61,-135.25,20.18,-79.09,-5.12,-61.20,36.30,6.75,35.46,119.98,
06/01/2021,01:09:09.43,-82.03,-957.52,-152.34,14.88,-75.67,-3.48,-61.20,36.30,6.75,35.41,119.98,
06/01/2021,01:09:09.43,-88.87,-954.59,-171.39,14.76,-73.35,-5.98,-61.95,35.85,8.55,35.36,119.98,
06/01/2021,01:09:09.44,-82.03,-949.22,-183.59,14.09,-72.99,-3.11,-61.20,35.10,4.80,35.03,119.98,
06/01/2021,01:09:09.45,-78.61,-971.19,-184.08,13.23,-70.73,-4.51,-61.20,35.10,4.80,35.46,119.98,
06/01/2021,01:09:09.45,-62.99,-952.64,-183.59,12.07,-68.90,-1.28,-62.70,36.60,5.55,35.46,119.98,
06/01/2021,01:09:09.47,-19.53,-962.40,-177.73,6.83,-70.73,-2.87,-60.45,36.30,6.00,35.27,119.98,
06/01/2021,01:09:09.47,-8.79,-975.59,-161.62,5.55,-70.12,-2.68,-61.80,35.25,7.95,35.46,119.98,
06/01/2021,01:09:09.48,3.42,-976.56,-143.55,6.34,-71.40,-4.02,-61.80,35.25,7.95,35.55,119.98,
06/01/2021,01:09:09.49,13.67,-976.56,-125.49,5.91,-68.29,-2.68,-61.35,36.00,3.60,35.55,119.98,
06/01/2021,01:09:09.49,16.11,-975.59,-112.30,4.09,-66.04,-1.34,-61.35,36.00,3.60,35.55,119.98,
06/01/2021,01:09:09.50,26.86,-982.91,-99.12,2.01,-66.89,-5.30,-61.35,36.00,3.60,35.55,119.98,
06/01/2021,01:09:09.51,46.39,-1001.95,-82.03,5.79,-62.56,-5.91,-63.30,36.90,2.55,35.36,119.98,
06/01/2021,01:09:09.52,37.60,-1021.97,-88.38,4.27,-59.15,-6.77,-63.30,36.90,2.55,35.27,119.98,
06/01/2021,01:09:09.52,40.53,-1027.83,-84.96,5.73,-62.20,-6.65,-62.70,35.85,3.45,35.17,119.98,
06/01/2021,01:09:09.53,40.04,-1045.90,-102.05,4.39,-58.48,-7.01,-62.70,35.85,3.45,35.41,119.98,
06/01/2021,01:09:09.54,62.01,-1046.39,-91.31,0.37,-60.00,-5.91,-63.60,35.25,2.85,35.46,119.98,
06/01/2021,01:09:09.55,99.12,-1074.22,-177.25,-7.80,-66.65,-10.37,-64.80,33.30,4.65,35.55,119.98,
06/01/2021,01:09:09.56,117.19,-1068.85,-192.87,-9.39,-69.94,-8.66,-64.80,33.30,4.65,35.22,119.98,
06/01/2021,01:09:09.56,114.26,-1089.84,-242.19,-10.12,-74.27,-15.37,-64.20,36.30,0.15,35.55,119.98,
06/01/2021,01:09:09.57,129.39,-1096.68,-255.86,-15.61,-79.51,-13.35,-64.20,36.30,0.15,35.60,119.98,
06/01/2021,01:09:09.60,222.17,-1270.02,-431.64,-45.00,-106.40,-24.33,-66.45,35.10,3.00,35.17,119.98,
06/01/2021,01:09:09.63,161.13,-1490.23,-118.65,-54.51,-123.72,-23.41,-65.85,33.75,-1.35,35.60,119.98,
06/01/2021,01:09:09.63,99.61,-1469.24,3.42,-49.21,-120.98,-17.20,-66.60,33.00,-1.05,35.60,119.98,
06/01/2021,01:09:09.64,7.81,-1432.13,159.18,-40.18,-116.04,-13.72,-66.60,33.00,-1.05,35.60,119.98,
06/01/2021,01:09:09.65,-55.18,-1323.73,329.59,-18.60,-111.04,-7.50,-65.10,35.25,-4.65,35.75,119.98,
06/01/2021,01:09:09.65,-110.35,-1217.29,430.18,4.15,-102.50,-0.79,-65.10,35.25,-4.65,35.75,119.98,
06/01/2021,01:09:09.67,-60.06,-1062.01,400.39,44.82,-80.18,5.55,-66.00,33.60,-4.80,35.46,119.98,
06/01/2021,01:09:09.67,-11.72,-1032.71,328.61,50.55,-70.61,10.79,-66.00,33.60,-4.80,35.55,119.98,
06/01/2021,01:09:09.68,12.21,-1001.95,257.81,48.96,-60.61,10.79,-66.00,33.60,-4.80,35.36,119.98,
06/01/2021,01:09:09.68,23.93,-944.34,205.57,43.29,-52.13,15.55,-64.35,34.20,-5.40,35.27,119.98,
06/01/2021,01:09:09.69,38.57,-895.02,127.44,36.34,-47.32,17.44,-64.35,34.20,-5.40,35.36,119.98,
06/01/2021,01:09:09.71,92.77,-795.41,-0.49,16.16,-47.80,17.50,-65.25,33.15,-6.00,35.55,119.98,
06/01/2021,01:09:09.71,119.14,-762.21,-15.14,13.35,-57.32,18.72,-65.25,33.15,-6.00,35.46,119.98,
06/01/2021,01:09:09.72,157.71,-765.62,-23.44,6.28,-67.07,15.67,-66.45,32.40,-6.00,35.55,119.98,
06/01/2021,01:09:09.72,202.64,-734.86,-14.65,2.56,-79.45,10.55,-64.95,31.65,-6.30,35.70,119.98,
06/01/2021,01:09:09.73,226.07,-763.67,-10.25,1.52,-92.44,7.50,-64.95,31.65,-6.30,35.27,119.98,
06/01/2021,01:09:09.74,266.60,-781.25,1.95,4.63,-97.56,5.18,-64.35,31.50,-9.00,35.17,119.98,
06/01/2021,01:09:09.75,292.48,-876.95,40.04,9.57,-99.33,-6.04,-65.70,31.95,-8.85,35.55,119.98,
06/01/2021,01:09:09.76,261.72,-942.38,36.62,16.34,-96.46,-9.94,-67.20,31.65,-6.30,35.36,119.98,
06/01/2021,01:09:09.76,213.87,-989.75,41.02,18.60,-87.38,-15.79,-67.20,31.65,-6.30,35.36,119.98,
06/01/2021,01:09:09.77,169.43,-1049.32,35.16,26.22,-79.45,-18.23,-67.20,31.65,-6.30,35.27,119.98,
06/01/2021,01:09:09.78,116.21,-1125.00,46.88,31.95,-74.57,-18.48,-64.20,32.85,-11.10,35.27,119.98,
06/01/2021,01:09:09.79,9.77,-1218.26,0.00,33.66,-55.73,-13.23,-64.20,32.85,-11.10,35.55,119.98,
06/01/2021,01:09:09.80,-42.97,-1226.07,16.11,32.93,-50.91,-5.79,-64.95,31.20,-8.55,35.46,119.98,
06/01/2021,01:09:09.80,-56.64,-1208.01,21.48,32.07,-47.07,-1.10,-64.95,31.20,-8.55,35.55,119.98,
06/01/2021,01:09:09.81,-108.89,-1173.34,18.07,26.34,-44.39,4.33,-64.20,31.65,-11.10,35.60,119.98,
06/01/2021,01:09:09.81,-112.30,-1121.58,23.93,25.24,-42.50,5.61,-63.45,31.65,-11.10,35.07,119.98,
06/01/2021,01:09:09.83,-150.88,-1029.79,-1.46,21.40,-34.21,17.26,-65.70,31.20,-9.60,35.22,119.98,
06/01/2021,01:09:09.84,-152.83,-983.89,-26.37,18.29,-27.74,17.99,-65.10,31.50,-9.45,35.55,119.98,
06/01/2021,01:09:09.84,-131.84,-930.18,-46.39,15.12,-26.71,21.83,-65.10,31.50,-9.45,35.55,119.98,
06/01/2021,01:09:09.85,-134.77,-890.62,-55.18,10.24,-21.77,15.79,-63.45,33.15,-11.85,35.41,119.98,
06/01/2021,01:09:09.85,-131.84,-859.86,-83.98,5.85,-23.48,18.29,-63.45,33.15,-11.85,35.55,119.98,
06/01/2021,01:09:09.87,-64.45,-795.90,-104.98,-2.87,-15.12,11.52,-64.20,30.45,-9.30,35.36,119.98,
06/01/2021,01:09:09.88,-39.06,-801.27,-122.07,-6.89,-10.79,10.24,-64.20,30.45,-9.30,35.55,119.98,
06/01/2021,01:09:09.88,-6.35,-780.76,-123.05,-4.33,-7.68,7.38,-65.10,33.00,-9.75,35.36,119.98,
06/01/2021,01:09:09.89,17.58,-784.18,-124.02,-2.80,-11.77,3.11,-63.60,32.55,-10.95,35.75,119.98,
06/01/2021,01:09:09.89,59.08,-775.39,-140.14,-5.43,-9.57,0.85,-63.60,32.55,-10.95,35.36,119.98,
06/01/2021,01:09:09.90,93.26,-798.34,-132.32,-2.80,-8.48,0.37,-62.70,31.95,-12.15,35.36,119.98,
06/01/2021,01:09:09.91,142.58,-798.34,-146.00,0.00,-5.43,-3.35,-62.10,29.85,-13.05,35.41,119.98,
06/01/2021,01:09:09.92,137.70,-841.31,-126.46,1.52,-2.68,-2.74,-65.70,28.95,-10.05,35.55,119.98,
06/01/2021,01:09:09.93,152.83,-852.54,-126.46,2.56,-3.23,-0.61,-65.70,28.95,-10.05,35.55,119.98,
06/01/2021,01:09:09.93,142.09,-879.88,-123.54,2.32,0.30,-0.37,-65.70,28.95,-10.05,35.60,119.98,
06/01/2021,01:09:09.94,113.77,-908.20,-111.82,3.29,1.28,0.00,-63.45,31.20,-12.15,35.36,119.98,
06/01/2021,01:09:09.95,54.69,-962.40,-104.49,1.59,1.52,-2.74,-63.45,31.20,-12.15,35.41,119.98,
06/01/2021,01:09:09.96,46.39,-975.10,-112.30,0.61,2.44,2.20,-65.25,28.95,-11.10,35.07,119.98,
06/01/2021,01:09:09.96,25.39,-993.16,-99.12,-1.46,6.46,-2.80,-65.25,28.95,-11.10,35.36,119.98,
06/01/2021,01:09:09.97,36.62,-997.56,-111.33,0.24,6.28,-1.40,-62.85,31.50,-13.80,35.36,119.98,
06/01/2021,01:09:09.98,17.09,-981.93,-98.14,-2.07,4.51,-3.90,-62.85,31.50,-13.80,35.17,119.98,
06/01/2021,01:09:09.99,49.32,-945.80,-108.40,-3.35,8.54,3.35,-63.60,31.50,-11.25,35.55,119.98,
06/01/2021,01:09:10.00,66.89,-940.43,-115.72,-1.52,10.24,3.11,-66.15,30.75,-12.00,35.36,119.98,
06/01/2021,01:09:10.00,95.70,-923.83,-124.51,-6.65,12.26,5.43,-66.15,30.75,-12.00,35.36,119.98,
06/01/2021,01:09:10.01,102.05,-913.09,-147.46,-5.00,12.01,8.72,-63.45,30.15,-12.15,35.07,119.98,
06/01/2021,01:09:10.02,118.16,-905.27,-144.53,-5.18,11.22,9.09,-63.45,30.15,-12.15,35.46,119.98,
06/01/2021,01:09:10.02,124.02,-923.83,-146.00,-5.24,9.27,8.54,-63.45,30.15,-12.15,35.41,119.98,
06/01/2021,01:09:10.04,119.14,-925.29,-180.18,-3.96,8.48,12.50,-64.95,31.65,-14.70,35.46,119.98,
06/01/2021,01:09:10.04,127.93,-930.66,-202.15,-2.80,5.43,10.00,-64.95,31.65,-14.70,35.36,119.98,
06/01/2021,01:09:10.05,118.65,-939.94,-207.03,-6.22,6.10,9.09,-64.05,31.80,-13.50,35.22,119.98,
06/01/2021,01:09:10.06,114.75,-936.04,-213.87,-7.87,4.63,10.18,-64.05,31.80,-13.50,35.55,119.98,
06/01/2021,01:09:10.06,97.66,-955.57,-201.17,-5.55,3.84,6.65,-64.80,30.30,-13.50,35.46,119.98,
06/01/2021,01:09:10.08,78.61,-957.03,-198.73,-10.37,3.11,7.32,-63.30,29.85,-13.50,35.46,119.98,
06/01/2021,01:09:10.11,0.98,-1049.80,-188.96,-12.74,5.30,13.60,-65.40,28.35,-9.75,35.36,119.98,
06/01/2021,01:09:10.12,6.35,-1095.70,-220.21,-15.79,6.52,16.22,-65.40,28.05,-12.75,35.55,119.98,
06/01/2021,01:09:10.13,-13.67,-1127.44,-235.84,-18.35,8.84,14.45,-65.40,28.05,-12.75,35.27,119.98,
06/01/2021,01:09:10.14,-16.11,-1128.42,-264.16,-20.43,10.73,20.61,-65.40,28.05,-12.75,35.36,119.98,
06/01/2021,01:09:10.15,-54.69,-1179.69,-332.03,-24.76,19.76,24.94,-65.40,28.80,-11.70,35.70,119.98,
06/01/2021,01:09:10.16,-71.29,-1189.45,-359.86,-27.87,22.62,26.04,-65.40,28.80,-11.70,35.07,119.98,
06/01/2021,01:09:10.16,-113.77,-1216.31,-374.51,-29.51,26.77,25.67,-64.20,30.15,-13.95,35.36,119.98,
06/01/2021,01:09:10.17,-148.44,-1250.49,-386.23,-34.45,30.06,28.11,-64.20,30.15,-13.95,35.17,119.98,
06/01/2021,01:09:10.18,-162.11,-1312.99,-398.93,-37.44,28.78,28.17,-63.45,30.45,-14.70,35.36,119.98,
06/01/2021,01:09:10.19,-140.14,-1508.30,-195.31,-43.17,30.30,21.04,-63.60,28.80,-12.30,35.60,119.98,
06/01/2021,01:09:10.20,-85.45,-1573.24,-75.68,-39.88,29.02,19.15,-63.60,28.80,-12.30,35.22,119.98,
06/01/2021,01:09:10.20,9.28,-1571.78,36.62,-39.76,28.11,13.72,-63.60,28.80,-12.30,35.70,119.98,
06/01/2021,01:09:10.21,109.38,-1526.86,116.70,-37.13,22.74,11.22,-63.60,28.80,-12.30,35.36,119.98,
06/01/2021,01:09:10.22,182.62,-1433.11,164.55,-37.44,23.66,7.38,-62.85,31.50,-12.75,35.55,119.98,
06/01/2021,01:09:10.23,210.94,-1123.54,216.80,-17.44,12.87,0.79,-64.80,28.80,-10.50,35.07,119.98,
06/01/2021,01:09:10.24,188.48,-1071.78,183.11,-6.10,12.74,-5.37,-64.80,28.80,-10.50,35.55,119.98,
06/01/2021,01:09:10.24,123.54,-1022.95,150.39,7.32,9.45,-10.06,-63.30,29.10,-14.25,35.60,119.98,
06/01/2021,01:09:10.25,125.98,-990.23,113.28,17.32,10.06,-10.67,-63.30,29.10,-14.25,35.36,119.98,
06/01/2021,01:09:10.26,83.01,-988.77,63.48,21.65,8.54,-14.63,-62.85,31.05,-14.55,35.27,119.98,
06/01/2021,01:09:10.27,-4.88,-879.39,-17.58,14.63,19.09,-13.60,-62.70,31.20,-13.65,35.55,119.98,
06/01/2021,01:09:10.28,-31.25,-854.00,-35.16,2.74,26.10,-12.68,-62.70,31.20,-13.65,35.46,119.98,
06/01/2021,01:09:10.28,-59.57,-819.82,-24.90,-3.11,30.98,-12.13,-63.00,30.45,-13.20,35.22,119.98,
06/01/2021,01:09:10.29,-94.73,-779.79,-30.76,-11.16,35.61,-7.80,-63.00,30.45,-13.20,35.55,119.98,
06/01/2021,01:09:10.29,-136.23,-777.34,-17.09,-16.46,38.17,-5.18,-63.00,30.45,-13.20,35.22,119.98,
06/01/2021,01:09:10.30,-171.39,-787.60,-14.65,-21.59,46.10,-4.15,-63.00,30.45,-13.20,35.17,119.98,
06/01/2021,01:09:10.32,-199.22,-824.71,33.69,-20.61,47.50,-0.91,-64.50,29.40,-12.60,35.46,119.98,
06/01/2021,01:09:10.32,-198.73,-853.52,41.99,-13.29,48.66,-0.06,-64.20,29.40,-12.60,35.22,119.98,
06/01/2021,01:09:10.33,-185.55,-902.34,48.83,-6.95,47.44,1.59,-64.20,31.20,-11.40,35.55,119.98,
06/01/2021,01:09:10.33,-161.13,-930.18,45.41,-1.89,43.96,2.56,-62.25,30.90,-13.20,35.27,119.98,
06/01/2021,01:09:10.34,-137.70,-982.42,40.04,2.07,41.04,3.90,-62.25,30.90,-13.20,35.22,119.98,
06/01/2021,01:09:10.36,37.11,-1138.18,-26.86,4.45,15.73,-2.50,-63.75,30.15,-11.10,35.55,119.98,
06/01/2021,01:09:10.37,90.33,-1145.51,-31.74,-1.04,12.32,-5.61,-63.75,30.15,-11.10,35.36,119.98,
06/01/2021,01:09:10.38,143.07,-1139.65,-41.02,-3.48,8.84,-8.78,-63.00,31.65,-11.85,35.27,119.98,
06/01/2021,01:09:10.38,162.11,-1109.38,-39.55,-5.24,1.34,-10.18,-63.00,31.65,-11.85,35.22,119.98,
06/01/2021,01:09:10.39,191.41,-1083.01,-46.88,-6.46,-4.88,-12.62,-63.00,31.65,-11.85,35.36,119.98,
06/01/2021,01:09:10.40,240.72,-1012.70,-40.53,-7.87,-9.88,-19.33,-61.35,30.75,-12.30,35.22,119.98,
06/01/2021,01:09:10.41,240.72,-961.91,-38.09,-9.02,-10.30,-21.16,-64.95,29.70,-10.05,35.07,119.98,
06/01/2021,01:09:10.42,199.71,-925.29,-62.99,-8.66,-10.00,-23.78,-63.00,30.15,-12.60,35.70,119.98,
06/01/2021,01:09:10.42,183.11,-899.90,-75.68,-5.73,-9.39,-19.70,-63.00,30.15,-12.60,35.36,119.98,
06/01/2021,01:09:10.43,162.11,-870.12,-71.78,-4.15,-6.52,-20.37,-62.10,29.85,-12.75,35.36,119.98,
06/01/2021,01:09:10.44,45.41,-833.50,-89.36,1.83,-9.21,-21.95,-61.95,31.95,-12.15,35.55,119.98,
06/01/2021,01:09:10.45,26.37,-843.75,-93.75,8.23,-10.55,-19.94,-66.90,29.55,-10.95,35.55,119.98,
06/01/2021,01:09:10.46,-4.39,-841.80,-107.42,10.37,-9.27,-22.99,-66.90,29.55,-10.95,35.22,119.98,
06/01/2021,01:09:10.46,-36.13,-842.29,-99.61,11.16,-14.45,-20.61,-66.90,29.55,-10.95,35.07,119.98,
06/01/2021,01:09:10.47,-57.62,-853.52,-95.21,12.07,-12.13,-17.68,-63.30,31.05,-13.80,35.36,119.98,
06/01/2021,01:09:10.48,-96.68,-851.07,-102.05,12.68,-17.50,-12.13,-63.30,31.05,-13.80,35.27,119.98,
06/01/2021,01:09:10.49,-120.61,-839.84,-106.93,12.93,-15.30,-10.12,-64.05,31.05,-10.20,35.07,119.98,
06/01/2021,01:09:10.49,-107.42,-819.82,-103.52,12.07,-17.26,-6.46,-64.05,31.05,-10.20,35.17,119.98,
06/01/2021,01:09:10.50,-122.56,-819.34,-114.26,12.32,-21.22,-5.73,-62.85,32.55,-12.30,35.17,119.98,
06/01/2021,01:09:10.51,-116.21,-818.85,-130.37,8.96,-19.76,-2.62,-62.55,30.75,-12.30,35.46,119.98,
06/01/2021,01:09:10.52,-79.10,-847.17,-147.46,10.43,-26.77,-0.61,-62.10,30.75,-10.95,35.07,119.98,
06/01/2021,01:09:10.53,-59.08,-877.93,-150.88,10.37,-27.20,0.79,-64.50,31.20,-11.85,35.36,119.98,
06/01/2021,01:09:10.53,-54.69,-905.27,-155.27,10.91,-32.20,-1.46,-64.50,31.20,-11.85,35.46,119.98,
06/01/2021,01:09:10.54,-46.88,-929.20,-156.74,12.87,-34.09,0.55,-62.10,31.80,-13.05,35.36,119.98,
06/01/2021,01:09:10.55,-28.81,-936.04,-145.02,10.67,-38.54,1.46,-62.10,31.80,-13.05,35.55,119.98,
06/01/2021,01:09:10.55,-30.76,-956.05,-159.67,12.13,-39.76,-1.16,-62.10,31.80,-13.05,35.22,119.98,
06/01/2021,01:09:10.57,-31.74,-958.50,-152.34,9.57,-43.17,-3.72,-61.95,31.95,-12.15,35.55,119.98,
06/01/2021,01:09:10.57,-55.66,-945.80,-174.32,6.16,-45.30,-2.56,-61.95,31.95,-12.15,35.36,119.98,
06/01/2021,01:09:10.58,-64.45,-939.94,-163.57,6.52,-42.20,-4.51,-63.00,30.90,-11.85,35.70,119.98,
06/01/2021,01:09:10.59,-72.27,-952.64,-176.76,6.04,-38.72,-3.29,-63.00,30.90,-11.85,35.46,119.98,
06/01/2021,01:09:10.64,-86.43,-884.28,-220.70,3.78,-20.85,-4.33,-63.30,31.80,-11.25,35.36,119.97,
06/01/2021,01:09:10.66,-23.93,-905.76,-228.52,-3.05,-20.61,-0.91,-63.00,31.20,-12.60,35.17,119.97,
06/01/2021,01:09:10.67,-12.21,-919.92,-234.86,-7.56,-24.15,-1.34,-63.00,31.20,-12.60,35.07,119.97,
06/01/2021,01:09:10.67,16.60,-915.53,-232.42,-8.90,-28.35,-2.50,-61.80,30.75,-12.00,35.07,119.97,
06/01/2021,01:09:10.68,16.11,-929.69,-221.68,-8.84,-29.70,-4.15,-60.15,31.95,-13.95,35.55,119.97,
06/01/2021,01:09:10.69,22.95,-924.32,-226.07,-11.89,-30.91,-7.26,-60.15,31.95,-13.95,35.27,119.97,
06/01/2021,01:09:10.70,42.97,-956.54,-231.45,-13.41,-40.73,-9.21,-62.70,30.45,-13.20,35.36,119.97,
06/01/2021,01:09:10.71,51.27,-966.80,-239.26,-13.90,-43.66,-9.88,-62.70,30.45,-13.20,35.36,119.97,
06/01/2021,01:09:10.71,49.80,-998.05,-246.09,-15.79,-45.98,-12.68,-62.70,30.45,-13.20,35.46,119.97,
06/01/2021,01:09:10.72,39.06,-999.51,-262.21,-14.15,-48.60,-11.95,-61.20,30.90,-13.95,35.22,119.97,
06/01/2021,01:09:10.72,39.06,-1023.93,-262.70,-17.93,-51.40,-12.13,-61.20,30.90,-13.95,35.36,119.97,
06/01/2021,01:09:10.74,18.55,-1032.71,-300.29,-18.41,-54.15,-12.62,-62.55,30.75,-13.05,35.36,119.97,
06/01/2021,01:09:10.75,-1.46,-1047.85,-332.52,-16.83,-53.54,-12.13,-62.55,30.75,-13.05,35.70,119.97,
06/01/2021,01:09:10.75,-1.46,-1048.83,-336.43,-19.82,-55.30,-16.16,-61.20,31.95,-13.95,35.46,119.97,
06/01/2021,01:09:10.76,-19.53,-1058.11,-362.79,-19.02,-56.89,-16.71,-61.20,31.95,-13.95,35.60,119.97,
06/01/2021,01:09:10.76,-18.55,-1077.15,-389.65,-19.82,-57.74,-15.43,-59.70,30.90,-15.15,35.36,119.97,
06/01/2021,01:09:10.78,18.07,-1082.52,-489.26,-31.10,-63.17,-17.93,-62.70,31.95,-13.20,35.36,119.97,
06/01/2021,01:09:10.79,49.32,-1109.38,-542.97,-40.00,-63.17,-17.56,-62.70,31.95,-13.20,35.55,119.97,
06/01/2021,01:09:10.79,90.82,-1208.98,-544.92,-49.88,-60.91,-18.72,-60.60,30.75,-17.55,35.55,119.97,
06/01/2021,01:09:10.80,104.00,-1330.08,-491.70,-62.99,-65.30,-19.02,-60.60,30.75,-17.55,35.07,119.97,
06/01/2021,01:09:10.80,122.07,-1453.61,-376.46,-73.05,-66.65,-16.10,-60.60,30.75,-17.55,35.07,119.97,
06/01/2021,01:09:10.82,76.17,-1708.98,1.95,-81.34,-69.09,-11.95,-60.90,32.85,-16.95,35.60,119.97,
06/01/2021,01:09:10.83,26.86,-1677.25,139.16,-68.41,-60.91,-7.44,-60.90,32.85,-16.95,35.46,119.97,
06/01/2021,01:09:10.83,-75.20,-1611.82,240.23,-54.09,-42.07,-5.79,-60.60,30.75,-17.55,35.55,119.97,
06/01/2021,01:09:10.84,-217.29,-1452.15,276.37,-33.17,-21.10,-2.32,-60.60,30.75,-17.55,35.60,119.98,
06/01/2021,01:09:10.84,-319.34,-1294.43,288.09,-7.44,-6.77,8.54,-59.55,31.50,-17.85,35.07,119.98,
06/01/2021,01:09:10.86,-344.24,-1074.71,183.59,46.77,7.99,28.78,-61.80,33.00,-18.15,35.55,119.97,
06/01/2021,01:09:10.87,-287.60,-998.54,102.05,55.73,9.70,31.10,-61.65,30.15,-16.20,35.60,119.97,
06/01/2021,01:09:10.87,-232.42,-940.92,55.66,56.40,12.87,35.43,-61.65,31.20,-18.00,35.55,119.98,
06/01/2021,01:09:10.88,-144.53,-895.51,-19.53,51.40,16.16,36.95,-61.65,31.20,-18.00,35.55,119.98,
06/01/2021,01:09:10.88,-52.25,-874.02,-43.46,41.04,13.90,34.45,-60.60,30.75,-17.10,35.55,119.98,
06/01/2021,01:09:10.90,234.38,-839.36,-64.45,8.23,1.40,25.91,-60.60,30.75,-17.10,35.60,119.97,
06/01/2021,01:09:10.91,362.30,-832.52,-55.66,-2.01,-6.22,20.49,-62.70,28.95,-13.95,35.55,119.98,
06/01/2021,01:09:10.91,445.80,-842.29,-60.55,-8.96,-10.12,10.98,-62.70,28.95,-13.95,35.46,119.98,
06/01/2021,01:09:10.92,526.86,-820.80,-54.69,-12.93,-15.73,-3.05,-62.70,28.95,-13.95,35.07,119.98,
06/01/2021,01:09:10.92,548.83,-808.11,-31.74,-12.99,-24.27,-12.38,-58.20,29.70,-16.95,35.03,119.98,
06/01/2021,01:09:10.94,493.65,-803.71,-40.53,-6.65,-42.26,-36.34,-60.90,30.45,-17.25,35.27,119.98,
06/01/2021,01:09:10.94,436.52,-833.98,-33.69,1.46,-49.70,-40.24,-61.65,30.90,-15.45,35.27,119.98,
06/01/2021,01:09:10.95,373.05,-882.81,-58.59,9.70,-54.39,-43.23,-61.65,30.90,-15.45,35.07,119.98,
06/01/2021,01:09:10.96,279.30,-956.05,-89.84,16.52,-57.56,-45.79,-61.05,31.50,-17.55,35.27,119.98,
06/01/2021,01:09:10.96,191.41,-1004.88,-101.07,23.72,-57.20,-39.94,-59.25,29.10,-17.85,35.22,119.98,
06/01/2021,01:09:10.97,77.15,-1051.27,-105.47,27.74,-53.23,-35.24,-59.25,29.10,-17.85,35.46,119.98,
06/01/2021,01:09:10.98,-211.43,-1092.29,-99.61,32.62,-43.23,-17.93,-62.55,29.85,-17.55,35.36,119.98,
06/01/2021,01:09:10.99,-294.92,-1093.75,-79.10,34.94,-34.15,-5.79,-62.55,29.85,-17.55,35.55,119.98,
06/01/2021,01:09:11.00,-343.26,-1062.01,-55.18,37.62,-26.46,4.09,-60.60,31.05,-18.15,35.55,119.98,
06/01/2021,01:09:11.00,-365.23,-1040.53,-61.04,37.01,-16.71,12.62,-60.60,31.05,-18.15,35.55,119.98,
06/01/2021,01:09:11.01,-366.21,-1015.14,-48.83,35.24,-6.22,20.91,-60.45,32.40,-18.45,35.70,119.98,
06/01/2021,01:09:11.02,-313.96,-929.69,-74.71,25.61,20.06,28.54,-60.60,30.30,-16.80,35.70,119.98,
06/01/2021,01:09:11.03,-291.50,-898.93,-73.24,22.26,24.09,27.87,-60.60,30.30,-16.80,35.70,119.98,
06/01/2021,01:09:11.04,-258.79,-867.68,-82.03,13.11,27.87,26.28,-60.60,29.55,-17.55,35.27,119.98,
06/01/2021,01:09:11.04,-233.40,-857.91,-98.63,6.34,31.46,21.34,-60.60,29.55,-17.55,35.27,119.98,
06/01/2021,01:09:11.05,-200.20,-854.49,-90.33,3.96,33.96,19.27,-60.60,31.80,-17.55,35.22,119.98,
06/01/2021,01:09:11.06,-56.64,-849.12,-125.49,-1.10,38.96,13.84,-60.60,31.80,-17.55,35.36,119.98,
06/01/2021,01:09:11.07,-76.17,-825.20,-61.52,8.11,46.83,7.93,-60.60,28.35,-15.30,35.27,119.98,
06/01/2021,01:09:11.08,69.34,-879.39,-156.25,-7.93,33.78,5.55,-60.60,28.35,-15.30,35.17,119.98,
06/01/2021,01:09:11.08,122.56,-890.62,-147.46,-3.11,40.12,7.38,-60.60,28.35,-15.30,35.36,119.98,
06/01/2021,01:09:11.09,209.47,-909.67,-146.00,-1.16,40.85,6.04,-60.45,30.15,-16.50,35.70,119.98,
06/01/2021,01:09:11.13,159.67,-899.90,-193.36,17.99,33.72,-16.89,-61.95,28.20,-15.15,35.27,119.97,
06/01/2021,01:09:11.15,129.88,-907.71,-187.50,16.28,35.00,-20.06,-62.25,28.50,-13.65,35.27,119.97,
06/01/2021,01:09:11.15,113.77,-916.50,-196.29,12.56,40.43,-18.11,-62.25,28.50,-13.65,35.27,119.97,
06/01/2021,01:09:11.16,104.98,-905.76,-202.64,12.56,41.65,-19.76,-61.65,30.15,-16.95,35.55,119.97,
06/01/2021,01:09:11.16,107.91,-903.81,-200.20,11.71,40.67,-15.85,-61.65,30.15,-16.95,35.46,119.97,
06/01/2021,01:09:11.18,110.35,-900.39,-224.12,6.04,41.77,-14.82,-62.10,30.30,-13.80,35.27,119.97,
06/01/2021,01:09:11.18,115.23,-898.93,-246.09,7.20,41.59,-9.51,-62.10,30.30,-13.80,35.46,119.97,
06/01/2021,01:09:11.19,95.21,-920.90,-246.58,6.65,41.28,-7.74,-62.70,29.40,-13.95,35.60,119.97,
06/01/2021,01:09:11.20,104.00,-916.99,-245.61,7.99,40.30,-2.44,-62.10,30.75,-14.85,35.55,119.97,
06/01/2021,01:09:11.20,109.86,-923.34,-258.30,6.04,41.40,-0.43,-62.10,30.75,-14.85,35.55,119.97,
06/01/2021,01:09:11.22,125.98,-956.05,-252.44,5.67,37.32,3.54,-63.45,27.75,-12.90,35.22,119.97,
06/01/2021,01:09:11.22,108.89,-958.98,-262.21,4.82,38.05,7.20,-63.45,27.75,-12.90,35.46,119.97,
06/01/2021,01:09:11.23,125.00,-966.31,-248.54,2.26,34.27,6.59,-61.80,30.30,-14.25,35.55,119.97,
06/01/2021,01:09:11.24,113.77,-965.82,-240.72,4.82,32.93,9.45,-61.80,30.30,-14.25,35.07,119.97,
06/01/2021,01:09:11.24,103.03,-967.29,-241.70,2.93,32.80,7.62,-61.80,30.30,-14.25,35.55,119.97,
06/01/2021,01:09:11.25,96.68,-971.68,-241.21,-0.67,29.76,10.00,-61.65,28.95,-13.95,35.27,119.97,
06/01/2021,01:09:11.26,95.70,-1002.93,-213.87,-0.67,21.40,13.05,-61.65,28.95,-13.95,35.36,119.97,
06/01/2021,01:09:11.27,80.57,-1007.81,-232.42,-4.63,22.93,12.80,-62.70,28.95,-12.60,35.60,119.97,
06/01/2021,01:09:11.28,69.34,-1033.69,-226.56,-5.85,20.85,13.78,-62.70,28.95,-12.60,35.46,119.97,
06/01/2021,01:09:11.28,52.73,-1032.23,-244.63,-7.01,19.88,15.43,-62.10,29.55,-14.25,35.70,119.97,
06/01/2021,01:09:11.29,48.34,-1045.41,-245.61,-7.87,23.78,15.30,-61.95,28.95,-14.25,35.27,119.97,
06/01/2021,01:09:11.30,18.07,-1077.15,-271.48,-12.68,32.13,17.68,-62.55,28.05,-12.30,35.17,119.97,
06/01/2021,01:09:11.31,14.16,-1081.54,-276.86,-13.72,31.89,16.95,-64.35,27.15,-12.00,35.27,119.97,
06/01/2021,01:09:11.31,28.81,-1073.24,-285.16,-16.59,34.21,14.09,-64.35,27.15,-12.00,35.46,119.97,
06/01/2021,01:09:11.32,2.93,-1071.78,-298.34,-14.76,32.87,19.51,-62.85,26.85,-12.75,35.55,119.97,
06/01/2021,01:09:11.33,-4.88,-1066.41,-312.50,-14.76,31.71,21.83,-62.85,26.85,-12.75,35.22,119.97,
06/01/2021,01:09:11.34,-40.53,-1057.13,-380.86,-18.17,34.94,24.51,-61.95,28.20,-13.20,35.36,119.97,
06/01/2021,01:09:11.35,-62.50,-1065.43,-403.81,-22.99,36.71,26.83,-61.95,28.20,-13.20,35.36,119.97,
06/01/2021,01:09:11.35,-95.70,-1076.17,-437.01,-23.48,37.80,27.93,-64.05,29.55,-12.30,35.17,119.97,
06/01/2021,01:09:11.36,-131.35,-1134.28,-446.29,-31.89,42.20,30.67,-61.95,28.20,-12.60,35.36,119.97,
06/01/2021,01:09:11.37,-151.86,-1210.94,-450.68,-38.41,43.48,34.39,-61.95,28.20,-12.60,35.41,119.98,
06/01/2021,01:09:11.38,-78.61,-1522.95,-323.73,-60.98,47.74,29.45,-62.85,28.05,-11.25,35.55,119.97,
06/01/2021,01:09:11.39,13.67,-1608.40,-214.84,-67.01,45.98,27.13,-62.85,28.05,-11.25,35.46,119.97,
06/01/2021,01:09:11.39,141.11,-1654.30,-42.48,-68.05,41.40,20.91,-63.45,27.45,-11.85,35.41,119.98,
06/01/2021,01:09:11.40,287.60,-1612.79,182.62,-60.43,36.10,14.63,-63.45,27.45,-11.85,35.55,119.98,
06/01/2021,01:09:11.41,375.49,-1496.58,373.54,-38.54,21.40,6.40,-63.45,27.45,-11.85,35.55,119.98,
06/01/2021,01:09:11.42,391.11,-1135.25,454.10,33.78,-36.28,-4.57,-62.25,27.75,-14.40,35.07,119.97,
06/01/2021,01:09:11.43,316.89,-1075.68,388.18,51.28,-43.41,-9.88,-62.25,27.75,-14.40,35.27,119.98,
06/01/2021,01:09:11.43,232.91,-1041.02,292.48,60.06,-47.01,-13.35,-61.05,28.35,-13.50,35.36,119.98,
06/01/2021,01:09:11.44,136.23,-1012.21,217.77,57.99,-36.65,-14.27,-61.05,28.35,-13.50,35.27,119.98,
06/01/2021,01:09:11.44,40.04,-1001.95,134.77,50.18,-24.39,-13.54,-62.25,27.75,-12.60,35.36,119.98,
06/01/2021,01:09:11.46,-117.19,-953.61,-26.86,7.01,9.57,-7.99,-62.85,27.60,-12.00,35.60,119.97,
06/01/2021,01:09:11.47,-152.83,-917.48,-81.05,-7.62,18.05,-8.48,-62.85,27.60,-12.00,35.27,119.98,
06/01/2021,01:09:11.47,-192.87,-882.81,-121.09,-17.74,27.50,-1.83,-62.55,27.60,-12.30,35.36,119.98,
06/01/2021,01:09:11.48,-186.52,-845.21,-146.97,-27.68,31.46,0.00,-62.55,27.60,-12.30,35.55,119.98,
06/01/2021,01:09:11.48,-186.52,-827.64,-144.04,-34.51,37.26,1.95,-61.20,27.00,-12.90,35.27,119.98,
06/01/2021,01:09:11.50,-126.46,-893.55,-59.57,-17.50,32.74,4.63,-61.20,27.00,-12.90,35.55,119.98,
06/01/2021,01:09:11.51,-66.41,-916.99,-56.64,-11.65,28.78,2.93,-62.55,28.05,-10.95,35.36,119.98,
06/01/2021,01:09:11.51,-19.04,-963.87,-25.39,0.24,21.65,1.89,-62.55,28.05,-10.95,35.55,119.98,
06/01/2021,01:09:11.52,10.74,-998.54,-17.58,7.99,15.91,-0.06,-62.55,28.05,-10.95,35.22,119.98,
06/01/2021,01:09:11.52,49.80,-1042.48,-8.30,12.50,12.07,-2.32,-61.65,27.00,-12.90,35.55,119.98,
06/01/2021,01:09:11.53,97.66,-1065.43,3.91,14.76,6.77,-2.26,-61.65,27.00,-12.90,35.36,119.98,
06/01/2021,01:09:11.55,189.94,-1095.70,2.93,13.60,-9.15,-9.76,-63.30,29.10,-13.50,35.41,119.98,
06/01/2021,01:09:11.55,226.07,-1069.82,-8.30,11.28,-16.34,-12.13,-63.30,29.10,-13.50,35.36,119.98,
06/01/2021,01:09:11.56,268.55,-1055.18,-28.81,10.61,-22.26,-16.40,-63.60,28.05,-12.00,35.46,119.98,
06/01/2021,01:09:11.56,289.55,-1035.16,-29.79,11.28,-31.71,-18.66,-61.20,28.50,-13.65,35.36,119.98,
06/01/2021,01:09:11.57,304.69,-1002.93,-27.34,10.79,-37.32,-24.45,-61.20,28.50,-13.65,35.41,119.98,
06/01/2021,01:09:11.58,262.21,-911.13,-9.77,16.04,-47.20,-25.18,-61.80,29.10,-13.05,35.46,119.98,
06/01/2021,01:09:11.59,232.42,-854.98,-3.91,18.05,-47.87,-23.78,-61.80,29.10,-13.05,35.22,119.98,
06/01/2021,01:09:11.60,191.41,-848.14,21.48,19.70,-50.49,-24.33,-63.45,28.20,-12.60,35.27,119.98,
06/01/2021,01:09:11.60,155.76,-818.85,20.02,21.83,-47.07,-25.73,-63.45,28.20,-12.60,35.55,119.98,
06/01/2021,01:09:11.64,-15.14,-892.09,-46.39,23.90,-40.37,-20.24,-63.75,28.20,-12.60,35.60,119.97,
06/01/2021,01:09:11.66,-107.42,-898.93,-106.93,17.93,-35.61,-14.76,-63.75,27.45,-12.15,35.22,119.97,
06/01/2021,01:09:11.67,-114.75,-911.13,-110.84,18.35,-36.71,-15.24,-64.05,28.80,-12.75,35.55,119.97,
06/01/2021,01:09:11.67,-135.25,-894.04,-116.21,17.99,-39.09,-12.87,-64.05,28.80,-12.75,35.60,119.97,
06/01/2021,01:09:11.68,-117.68,-886.72,-116.70,18.96,-38.90,-9.09,-64.05,28.80,-12.75,35.55,119.97,
06/01/2021,01:09:11.68,-82.52,-881.35,-104.00,15.43,-38.72,-9.27,-61.05,28.35,-14.55,35.36,119.97,
06/01/2021,01:09:11.70,-16.11,-888.67,-103.52,14.33,-44.27,-4.15,-61.05,28.35,-14.55,35.22,119.97,
06/01/2021,01:09:11.71,-0.49,-896.00,-91.31,15.49,-46.22,-5.24,-64.05,26.10,-11.70,35.27,119.97,
06/01/2021,01:09:11.71,18.07,-907.71,-89.36,11.65,-50.30,-5.85,-64.05,26.10,-11.70,35.36,119.97,
06/01/2021,01:09:11.72,36.62,-924.80,-95.21,14.51,-55.73,-3.78,-62.10,28.35,-15.30,35.55,119.97,
06/01/2021,01:09:11.72,24.41,-935.55,-112.30,12.62,-56.95,-7.99,-61.95,28.50,-15.15,35.36,119.97,
06/01/2021,01:09:11.74,40.53,-952.64,-134.77,8.96,-54.39,-9.63,-62.10,27.60,-14.55,35.27,119.97,
06/01/2021,01:09:11.75,35.16,-946.78,-150.88,10.55,-55.73,-11.52,-62.85,26.85,-13.50,35.60,119.97,
06/01/2021,01:09:11.75,35.16,-951.66,-166.99,11.52,-56.10,-11.04,-62.85,26.85,-13.50,35.41,119.97,
06/01/2021,01:09:11.76,19.53,-965.82,-164.06,8.29,-54.82,-12.56,-61.20,27.45,-16.20,35.46,119.97,
06/01/2021,01:09:11.76,-0.49,-959.47,-177.25,10.12,-55.55,-10.06,-61.20,27.45,-16.20,35.55,119.97,
06/01/2021,01:09:11.78,-23.93,-935.06,-189.94,6.52,-51.52,-13.05,-62.10,27.15,-14.55,35.79,119.97,
06/01/2021,01:09:11.78,-13.67,-926.27,-175.78,6.16,-52.20,-13.05,-62.10,27.15,-14.55,35.36,119.97,
06/01/2021,01:09:11.79,-14.16,-931.64,-176.27,5.24,-51.83,-13.17,-62.10,27.15,-14.55,35.36,119.97,
06/01/2021,01:09:11.80,-6.84,-920.90,-168.95,1.40,-54.33,-14.94,-61.05,29.10,-17.55,35.79,119.97,
06/01/2021,01:09:11.80,1.46,-930.66,-170.41,1.52,-56.46,-12.68,-61.05,29.10,-17.55,35.55,119.97,
06/01/2021,01:09:11.81,13.67,-936.52,-166.02,0.06,-54.76,-14.02,-59.85,28.35,-16.80,35.41,119.97,
06/01/2021,01:09:11.82,7.81,-948.24,-161.62,-3.17,-57.80,-13.05,-61.05,28.35,-16.80,35.46,119.97,
06/01/2021,01:09:11.83,-10.25,-949.22,-157.71,-2.56,-54.51,-13.66,-64.20,26.70,-14.40,35.60,119.97,
06/01/2021,01:09:11.84,-13.18,-947.27,-160.64,-4.63,-55.98,-13.78,-61.95,27.75,-18.00,35.55,119.97,
06/01/2021,01:09:11.84,-17.09,-955.57,-157.71,-3.90,-55.18,-11.71,-61.95,27.75,-18.00,35.55,119.97,
06/01/2021,01:09:11.85,-27.34,-962.40,-180.18,-5.55,-53.54,-11.52,-60.45,27.45,-15.90,35.55,119.97,
06/01/2021,01:09:11.86,-64.94,-1000.98,-193.85,-7.26,-49.57,-8.41,-60.45,27.45,-15.90,35.27,119.97,
06/01/2021,01:09:11.87,-54.69,-1007.32,-211.91,-6.95,-50.73,-5.37,-62.55,27.60,-15.30,35.55,119.97,
06/01/2021,01:09:11.88,-64.45,-1029.79,-217.29,-7.80,-48.72,-4.02,-62.55,27.60,-15.30,35.27,119.97,
06/01/2021,01:09:11.88,-64.45,-1057.13,-214.84,-12.01,-49.70,-1.52,-62.55,27.60,-15.30,35.36,119.97,
06/01/2021,01:09:11.89,-75.20,-1068.85,-239.26,-13.29,-48.96,-1.71,-59.85,27.15,-17.85,35.36,119.98,
06/01/2021,01:09:11.90,-28.32,-1093.75,-300.29,-19.27,-47.56,-3.60,-59.40,27.00,-18.45,35.60,119.97,
06/01/2021,01:09:11.91,-12.70,-1112.79,-325.68,-22.07,-49.76,-3.60,-62.85,27.15,-16.80,35.46,119.97,
06/01/2021,01:09:11.92,24.90,-1140.62,-387.70,-28.11,-49.02,-5.24,-62.85,27.15,-16.80,35.46,119.97,
06/01/2021,01:09:11.92,103.52,-1179.20,-455.57,-36.40,-49.57,-8.41,-60.60,28.05,-19.35,35.36,119.98,
06/01/2021,01:09:11.93,155.76,-1256.84,-500.98,-44.21,-49.63,-8.84,-60.45,27.75,-19.80,35.60,119.98,
06/01/2021,01:09:11.94,298.83,-1500.49,-408.20,-68.23,-52.26,-13.96,-60.90,28.50,-18.00,35.36,119.97,
06/01/2021,01:09:11.95,307.13,-1557.13,-285.16,-71.22,-57.56,-20.98,-60.90,28.50,-18.00,35.55,119.97,
06/01/2021,01:09:11.96,289.55,-1584.47,-121.58,-66.83,-54.88,-20.79,-60.90,28.50,-18.00,35.55,119.98,
06/01/2021,01:09:11.96,216.80,-1498.05,56.15,-50.98,-56.40,-22.32,-59.25,28.80,-20.10,35.55,119.98,
06/01/2021,01:09:11.97,171.39,-1408.20,230.47,-34.09,-63.54,-24.57,-59.25,28.80,-20.10,35.27,119.98,
06/01/2021,01:09:11.98,71.78,-1211.91,408.20,20.73,-75.67,-14.27,-59.70,28.20,-19.50,35.60,119.97,
06/01/2021,01:09:11.99,95.70,-1187.01,370.61,34.82,-72.20,-9.82,-61.35,28.35,-19.65,35.36,119.98,
06/01/2021,01:09:12.00,106.93,-1189.45,281.74,38.60,-64.94,-3.60,-61.35,28.35,-19.65,35.36,119.98,
06/01/2021,01:09:12.00,132.32,-1149.41,200.68,38.11,-51.95,-1.04,-58.65,30.15,-22.35,35.55,119.98,
06/01/2021,01:09:12.01,136.72,-1090.82,141.11,32.26,-44.09,2.87,-58.65,30.15,-22.35,35.27,119.98,
06/01/2021,01:09:12.02,211.91,-951.17,34.18,20.98,-39.94,9.88,-59.40,28.50,-20.55,35.75,119.98,
06/01/2021,01:09:12.03,263.67,-903.32,37.60,15.43,-46.52,10.24,-61.65,28.50,-21.75,35.55,119.98,
06/01/2021,01:09:12.03,312.99,-848.63,24.90,16.04,-55.43,8.17,-61.65,28.50,-21.75,35.70,119.98,
06/01/2021,01:09:12.04,373.05,-803.22,33.20,14.15,-66.28,0.49,-61.65,28.50,-21.75,35.55,119.98,
06/01/2021,01:09:12.05,413.57,-774.90,36.13,14.39,-75.06,-2.99,-61.65,28.50,-21.75,35.27,119.98,
06/01/2021,01:09:12.06,453.61,-764.16,4.88,13.11,-93.96,-19.02,-58.95,29.70,-21.00,35.46,119.98,
06/01/2021,01:09:12.07,427.25,-781.25,-25.88,16.40,-95.55,-24.88,-58.95,29.70,-21.00,35.27,119.98,
06/01/2021,01:09:12.07,394.04,-814.45,-46.39,15.91,-96.10,-30.12,-59.25,27.60,-24.00,35.27,119.98,
06/01/2021,01:09:12.08,322.27,-841.31,-55.18,17.32,-98.96,-31.59,-57.15,28.50,-22.05,35.27,119.98,
06/01/2021,01:09:12.09,281.74,-884.28,-83.50,17.93,-93.84,-32.93,-57.15,28.50,-22.05,35.55,119.98,
06/01/2021,01:09:12.10,139.16,-979.00,-90.82,19.51,-83.48,-30.00,-60.30,26.85,-22.65,35.36,119.98,
06/01/2021,01:09:12.11,92.29,-1005.37,-73.73,18.90,-82.68,-30.30,-60.30,26.85,-22.65,35.22,119.98,
06/01/2021,01:09:12.14,-12.21,-1015.14,-8.30,28.78,-88.84,-3.72,-57.45,27.75,-23.55,35.55,119.97,
06/01/2021,01:09:12.16,-7.81,-955.57,-43.46,27.50,-81.16,3.11,-57.45,27.75,-23.55,35.22,119.97,
06/01/2021,01:09:12.16,14.65,-950.20,-52.25,25.98,-80.37,5.30,-57.15,26.25,-24.60,35.55,119.97,
06/01/2021,01:09:12.18,52.25,-926.76,-80.57,23.84,-76.65,9.27,-55.80,26.85,-24.00,35.60,119.97,
06/01/2021,01:09:12.18,71.29,-917.97,-92.29,24.02,-75.00,9.94,-57.15,26.25,-24.30,35.46,119.97,
06/01/2021,01:09:12.19,83.50,-922.36,-104.98,16.46,-70.12,8.05,-57.15,26.25,-24.30,35.22,119.97,
06/01/2021,01:09:12.19,88.38,-911.62,-112.30,14.15,-70.91,4.82,-55.50,27.15,-25.20,35.36,119.97,
06/01/2021,01:09:12.20,113.28,-899.41,-129.39,12.26,-70.43,1.89,-55.50,27.15,-25.20,35.55,119.97,
06/01/2021,01:09:12.21,131.84,-893.55,-121.09,9.88,-70.85,1.52,-53.40,27.75,-26.10,35.46,119.97,
06/01/2021,01:09:12.22,177.25,-864.26,-133.30,8.96,-66.95,-0.91,-53.55,27.60,-27.30,35.22,119.97,
06/01/2021,01:09:12.23,178.71,-845.70,-120.61,7.68,-66.71,-5.12,-53.55,27.60,-27.30,35.41,119.97,
06/01/2021,01:09:12.23,202.64,-839.36,-122.56,5.55,-65.79,-4.09,-52.95,26.85,-27.75,35.22,119.97,
06/01/2021,01:09:12.24,193.36,-846.19,-117.19,6.04,-70.43,-4.94,-52.95,26.85,-27.75,35.41,119.97,
06/01/2021,01:09:12.25,187.01,-848.63,-112.30,5.18,-68.84,-4.39,-52.95,26.85,-27.75,35.46,119.97,
06/01/2021,01:09:12.26,166.99,-887.21,-127.44,9.82,-68.84,-5.98,-53.25,28.35,-27.00,35.46,119.97,
06/01/2021,01:09:12.27,146.48,-907.71,-123.54,7.80,-68.96,-4.27,-54.90,26.25,-24.90,35.46,119.97,
06/01/2021,01:09:12.27,144.53,-911.62,-131.35,9.45,-70.67,-2.62,-52.95,28.05,-27.75,35.60,119.97,
06/01/2021,01:09:12.28,137.21,-921.88,-128.42,7.74,-67.56,-4.57,-52.95,28.05,-27.75,35.55,119.97,
06/01/2021,01:09:12.29,126.46,-915.04,-134.77,7.87,-66.22,-2.32,-51.75,25.65,-28.05,35.41,119.97,
06/01/2021,01:09:12.30,114.26,-933.59,-141.60,5.55,-64.76,-1.83,-52.20,25.35,-29.25,35.60,119.97,
06/01/2021,01:09:12.31,105.47,-943.85,-155.27,5.30,-60.85,-0.43,-54.60,25.05,-26.10,35.60,119.97,
06/01/2021,01:09:12.31,121.09,-937.99,-144.53,3.54,-61.83,-2.26,-50.40,26.25,-26.10,35.41,119.97,
06/01/2021,01:09:12.32,115.23,-943.36,-151.86,5.24,-60.91,0.43,-50.40,26.25,-26.10,35.55,119.97,
06/01/2021,01:09:12.32,145.02,-937.50,-139.16,5.24,-62.44,2.50,-51.75,27.60,-28.50,35.55,119.97,
06/01/2021,01:09:12.34,141.60,-937.01,-140.62,2.99,-58.96,5.30,-51.75,27.60,-28.50,35.07,119.97,
06/01/2021,01:09:12.35,173.34,-934.08,-137.70,-0.24,-56.59,3.41,-52.65,28.20,-24.60,35.17,119.97,
06/01/2021,01:09:12.35,174.80,-947.75,-138.18,2.56,-57.62,4.57,-52.65,28.20,-24.60,35.22,119.97,
06/01/2021,01:09:12.36,169.43,-938.48,-146.97,0.06,-54.88,3.78,-50.70,27.60,-28.80,35.36,119.97,
06/01/2021,01:09:12.36,174.80,-937.01,-144.04,-0.98,-54.88,3.17,-51.15,27.45,-27.90,35.36,119.97,
06/01/2021,01:09:12.38,149.90,-949.71,-203.12,-5.06,-52.87,0.91,-50.85,26.25,-27.60,35.07,119.97,
06/01/2021,01:09:12.39,139.16,-972.17,-234.86,-5.91,-50.49,0.85,-51.45,27.60,-27.00,35.36,119.97,
06/01/2021,01:09:12.39,129.88,-985.35,-270.02,-9.39,-48.41,2.87,-51.45,27.60,-27.00,35.41,119.97,
06/01/2021,01:09:12.40,115.23,-1014.16,-297.85,-11.40,-46.28,3.05,-49.20,27.60,-29.25,35.36,119.97,
06/01/2021,01:09:12.40,105.47,-1020.02,-312.01,-12.01,-43.96,6.52,-49.95,27.60,-29.25,35.36,119.97,
06/01/2021,01:09:12.41,76.17,-1019.53,-327.64,-14.45,-40.49,7.99,-49.95,27.15,-28.50,35.46,119.98,
06/01/2021,01:09:12.42,37.60,-1064.45,-326.66,-18.72,-34.39,10.98,-49.80,27.00,-29.70,35.36,119.97,
06/01/2021,01:09:12.43,30.27,-1071.78,-299.32,-17.38,-34.70,10.00,-49.80,27.00,-29.70,35.17,119.97,
06/01/2021,01:09:12.44,35.64,-1082.03,-282.71,-18.35,-32.26,13.11,-49.80,27.45,-29.70,35.17,119.97,
06/01/2021,01:09:12.44,39.06,-1110.35,-270.02,-18.41,-32.74,13.72,-49.80,27.45,-29.70,35.55,119.98,
06/01/2021,01:09:12.45,35.64,-1102.54,-257.32,-16.59,-32.74,18.60,-49.80,27.45,-29.70,35.55,119.98,
06/01/2021,01:09:12.46,35.16,-1094.24,-259.77,-21.16,-27.50,18.60,-49.50,27.15,-29.25,35.36,119.97,
06/01/2021,01:09:12.47,32.71,-1090.33,-276.37,-22.50,-24.88,19.45,-49.95,25.65,-27.30,35.75,119.97,
06/01/2021,01:09:12.48,39.55,-1083.50,-297.36,-23.23,-21.77,18.78,-49.20,26.10,-29.55,35.46,119.98,
06/01/2021,01:09:12.48,29.30,-1085.45,-319.82,-25.73,-20.49,17.74,-49.20,26.10,-29.55,35.55,119.98,
06/01/2021,01:09:12.49,14.16,-1089.84,-356.45,-28.96,-17.13,20.67,-48.45,27.60,-29.25,35.55,119.98,
06/01/2021,01:09:12.51,-10.74,-1250.00,-376.95,-36.40,-11.40,15.85,-49.20,26.10,-29.70,35.36,119.97,
06/01/2021,01:09:12.51,30.27,-1353.52,-338.87,-46.10,-11.59,12.32,-49.20,26.10,-27.75,35.55,119.97,
06/01/2021,01:09:12.52,93.75,-1452.15,-238.77,-52.93,-20.98,7.87,-49.20,26.10,-27.75,35.27,119.98,
06/01/2021,01:09:12.52,157.23,-1504.88,-119.14,-60.98,-25.85,-0.30,-49.20,26.10,-27.75,35.55,119.98,
06/01/2021,01:09:12.53,251.95,-1532.71,12.21,-63.41,-35.67,-2.80,-48.60,27.75,-30.45,35.22,119.98,
06/01/2021,01:09:12.55,420.41,-1348.14,277.83,-44.45,-54.39,-15.91,-48.60,27.75,-30.45,35.41,119.98,
06/01/2021,01:09:12.55,407.71,-1225.59,297.85,-28.72,-61.28,-23.23,-49.20,26.85,-28.05,35.55,119.98,
06/01/2021,01:09:12.56,333.50,-1098.63,298.34,-9.51,-64.27,-27.56,-46.65,28.05,-31.05,35.27,119.98,
06/01/2021,01:09:12.56,262.21,-1009.77,262.70,10.61,-62.56,-29.88,-46.65,28.05,-31.05,35.41,119.98,
06/01/2021,01:09:12.57,177.25,-960.94,200.68,22.38,-62.32,-32.32,-46.95,28.35,-30.30,35.55,119.98,
06/01/2021,01:09:12.58,-2.93,-954.59,33.69,30.85,-56.16,-27.93,-45.90,28.80,-32.40,35.27,119.98,
06/01/2021,01:09:12.59,-50.29,-948.24,-2.44,27.20,-51.46,-27.13,-47.10,26.70,-29.70,35.60,119.98,
06/01/2021,01:09:12.60,-105.96,-942.38,-30.76,21.16,-48.48,-19.09,-47.10,26.70,-29.70,35.46,119.98,
06/01/2021,01:09:12.60,-131.84,-922.36,-41.50,10.00,-41.89,-17.93,-46.05,27.75,-32.25,35.41,119.98,
06/01/2021,01:09:12.61,-138.67,-907.71,-37.60,-0.49,-40.37,-12.01,-46.05,27.75,-32.25,35.36,119.98,
06/01/2021,01:09:12.65,-86.91,-865.72,63.96,-0.91,-21.40,-0.55,-47.10,27.75,-29.40,35.36,119.97,
06/01/2021,01:09:12.67,-51.27,-947.75,27.34,5.12,-20.12,-1.95,-46.80,26.70,-30.45,35.36,119.97,
06/01/2021,01:09:12.67,-9.77,-986.82,8.79,9.21,-22.07,-3.66,-47.10,26.70,-30.15,35.36,119.97,
06/01/2021,01:09:12.68,21.97,-1009.28,7.32,6.22,-28.84,-2.87,-47.10,26.70,-30.15,35.36,119.97,
06/01/2021,01:09:12.68,60.55,-1037.11,-6.35,2.99,-32.74,-5.12,-44.85,28.95,-30.75,34.93,119.97,
06/01/2021,01:09:12.70,161.13,-1069.34,-20.02,0.49,-51.22,-15.79,-44.70,26.85,-31.80,35.07,119.97,
06/01/2021,01:09:12.70,196.29,-1071.29,-26.37,-0.12,-57.50,-16.22,-44.70,26.85,-31.80,35.07,119.97,
06/01/2021,01:09:12.71,234.38,-1056.64,-12.70,1.04,-66.22,-21.71,-44.70,26.40,-31.35,35.60,119.97,
06/01/2021,01:09:12.72,236.82,-1044.43,-7.81,1.40,-65.67,-22.87,-44.70,26.40,-31.35,35.27,119.97,
06/01/2021,01:09:12.72,239.75,-1031.74,-30.27,2.62,-71.28,-26.34,-44.70,26.40,-31.35,35.55,119.97,
06/01/2021,01:09:12.74,177.25,-994.14,-29.30,6.04,-69.88,-28.84,-44.70,28.35,-31.80,35.41,119.97,
06/01/2021,01:09:12.74,145.02,-977.05,-42.97,7.26,-69.15,-29.27,-45.45,27.60,-28.80,35.60,119.97,
06/01/2021,01:09:12.75,108.89,-966.80,-71.29,7.93,-68.90,-26.16,-43.80,27.75,-30.45,35.60,119.97,
06/01/2021,01:09:12.76,95.70,-961.91,-97.66,9.02,-63.48,-27.20,-43.80,27.75,-30.45,35.27,119.97,
06/01/2021,01:09:12.76,54.20,-965.33,-117.68,6.95,-58.66,-29.39,-43.95,27.15,-32.10,35.17,119.97,
06/01/2021,01:09:12.77,35.64,-971.19,-122.56,5.61,-58.23,-25.24,-43.95,27.15,-32.10,35.55,119.97,
06/01/2021,01:09:12.78,1.46,-960.94,-139.16,6.95,-58.35,-18.54,-42.90,26.40,-31.35,35.17,119.97,
06/01/2021,01:09:12.79,-21.00,-960.94,-144.04,7.74,-56.59,-18.17,-42.90,26.40,-31.35,35.07,119.97,
06/01/2021,01:09:12.80,-22.46,-951.17,-155.27,7.13,-57.26,-15.98,-42.90,26.40,-31.35,35.55,119.97,
06/01/2021,01:09:12.80,-19.53,-945.80,-139.16,5.37,-62.26,-17.44,-43.65,28.80,-32.40,35.46,119.97,
06/01/2021,01:09:12.81,-33.69,-925.29,-130.37,7.07,-65.00,-13.11,-43.65,28.80,-32.40,35.07,119.97,
06/01/2021,01:09:12.82,11.23,-900.39,-121.58,4.45,-71.71,-13.78,-44.25,25.80,-31.50,35.36,119.97,
06/01/2021,01:09:12.83,3.91,-896.00,-109.38,5.43,-74.76,-12.68,-44.25,25.80,-31.50,35.46,119.97,
06/01/2021,01:09:12.84,6.84,-903.32,-115.23,4.82,-74.88,-15.55,-43.05,28.20,-31.20,35.46,119.97,
06/01/2021,01:09:12.84,28.81,-889.65,-114.75,5.00,-77.87,-16.04,-40.35,27.60,-32.85,35.46,119.97,
06/01/2021,01:09:12.85,28.81,-907.23,-113.77,1.28,-77.99,-14.70,-40.35,27.60,-32.85,35.36,119.97,
06/01/2021,01:09:12.86,16.11,-939.45,-137.70,3.48,-86.04,-16.10,-44.25,25.80,-30.45,35.17,119.97,
06/01/2021,01:09:12.87,15.62,-948.73,-156.74,3.54,-84.09,-18.35,-44.25,25.80,-30.45,35.22,119.97,
06/01/2021,01:09:12.87,7.81,-951.17,-171.39,3.96,-88.05,-17.87,-41.70,26.40,-32.40,35.27,119.97,
06/01/2021,01:09:12.88,18.55,-932.13,-174.80,5.49,-87.87,-19.45,-41.70,26.40,-32.40,35.70,119.97,
06/01/2021,01:09:12.89,10.74,-940.92,-181.15,3.78,-87.44,-22.80,-41.70,26.40,-32.40,35.22,119.97,
06/01/2021,01:09:12.90,3.42,-929.20,-194.82,2.13,-92.56,-22.68,-40.50,26.25,-32.25,35.22,119.97,
06/01/2021,01:09:12.91,-3.42,-952.64,-184.57,1.22,-93.41,-22.99,-40.50,26.25,-32.25,35.17,119.97,
06/01/2021,01:09:12.91,-3.91,-951.66,-182.13,-0.85,-93.11,-23.35,-39.00,27.45,-32.70,35.27,119.97,
06/01/2021,01:09:12.92,6.84,-938.96,-180.66,-2.32,-92.99,-26.52,-39.00,27.45,-32.70,35.27,119.97,
06/01/2021,01:09:12.93,-0.49,-942.38,-176.76,-2.44,-92.32,-22.80,-38.40,28.35,-33.15,35.46,119.97,
06/01/2021,01:09:12.94,-11.23,-934.08,-194.34,-5.85,-89.57,-25.49,-38.10,27.60,-32.10,35.55,119.97,
06/01/2021,01:09:12.95,13.67,-911.62,-200.68,-7.13,-90.37,-26.65,-37.95,24.30,-31.50,35.55,119.97,
06/01/2021,01:09:12.95,18.55,-933.59,-198.73,-6.71,-86.34,-25.98,-39.90,27.15,-33.15,35.46,119.97,
06/01/2021,01:09:12.96,16.60,-928.22,-200.68,-8.96,-86.95,-22.50,-39.90,27.15,-33.15,35.41,119.97,
06/01/2021,01:09:12.97,23.44,-939.45,-209.47,-10.49,-87.87,-27.26,-38.10,28.35,-32.85,35.70,119.97,
06/01/2021,01:09:12.98,22.46,-965.82,-201.66,-7.68,-87.44,-25.67,-38.10,28.35,-32.85,35.17,119.97,
06/01/2021,01:09:12.99,18.07,-979.98,-189.94,-11.34,-87.44,-24.76,-37.65,24.90,-31.05,35.03,119.97,
06/01/2021,01:09:12.99,-6.35,-991.70,-183.59,-10.43,-88.35,-22.38,-35.70,27.00,-31.50,35.07,119.97,
06/01/2021,01:09:13.00,-2.93,-1001.46,-168.46,-10.61,-85.43,-20.43,-35.70,27.00,-31.50,35.07,119.98,
06/01/2021,01:09:13.01,-17.58,-1012.70,-157.71,-9.63,-84.09,-16.83,-36.60,26.85,-31.80,34.93,119.98,
06/01/2021,01:09:13.02,-46.39,-1036.62,-138.18,-5.98,-78.72,-14.45,-35.25,27.45,-32.25,35.27,119.97,
06/01/2021,01:09:13.03,-54.69,-1024.90,-118.16,-4.33,-74.94,-11.89,-37.95,25.50,-30.75,35.41,119.97,
06/01/2021,01:09:13.03,-56.64,-1024.90,-123.05,-5.91,-75.67,-12.38,-37.95,25.50,-30.75,35.60,119.97,
06/01/2021,01:09:13.04,-49.32,-1012.70,-124.02,-2.56,-76.89,-10.61,-34.50,27.75,-33.45,35.55,119.98,
06/01/2021,01:09:13.05,-56.64,-1007.81,-142.09,0.06,-78.35,-8.84,-34.50,27.75,-33.45,35.27,119.98,
06/01/2021,01:09:13.06,-0.49,-972.17,-217.29,0.06,-81.04,-11.83,-32.40,27.45,-32.70,35.55,119.97,
06/01/2021,01:09:13.07,23.93,-958.01,-252.93,-1.59,-82.44,-11.52,-32.40,27.45,-32.70,35.55,119.97,
06/01/2021,01:09:13.07,53.22,-970.21,-303.22,-3.48,-85.43,-14.39,-32.40,27.45,-32.70,35.27,119.98,
06/01/2021,01:09:13.08,98.63,-965.82,-333.50,-9.63,-85.67,-18.11,-32.70,26.70,-32.25,35.36,119.98,
06/01/2021,01:09:13.08,149.90,-978.03,-370.61,-15.37,-91.59,-17.13,-31.05,26.40,-33.60,35.36,119.98,
06/01/2021,01:09:13.09,209.96,-1012.21,-389.65,-21.83,-93.48,-24.70,-31.05,26.40,-33.60,35.55,119.98,
06/01/2021,01:09:13.11,312.01,-1104.49,-285.16,-37.50,-102.07,-31.34,-33.75,25.80,-30.75,35.75,119.98,
06/01/2021,01:09:13.11,334.47,-1135.25,-208.50,-42.38,-104.76,-31.22,-33.75,25.80,-30.75,35.55,119.98,
06/01/2021,01:09:13.12,352.54,-1169.92,-108.40,-38.66,-109.15,-34.82,-31.65,27.00,-32.70,35.60,119.98,
06/01/2021,01:09:13.12,342.29,-1208.98,-19.04,-36.83,-119.27,-37.44,-30.15,27.75,-32.25,35.36,119.98,
06/01/2021,01:09:13.19,134.77,-1125.49,74.22,37.56,-98.54,-17.38,-29.25,26.85,-30.30,35.55,119.97,
06/01/2021,01:09:13.20,154.79,-956.05,53.71,49.45,-85.55,-6.77,-28.95,27.00,-30.45,35.36,119.97,
06/01/2021,01:09:13.21,171.88,-893.07,44.92,52.93,-88.11,-6.89,-28.80,26.10,-29.85,35.70,119.97,
06/01/2021,01:09:13.21,214.36,-841.80,40.53,57.38,-92.01,-2.93,-28.80,26.10,-29.85,35.27,119.97,
06/01/2021,01:09:13.22,249.02,-794.92,21.00,52.74,-96.46,-6.95,-27.30,24.90,-31.80,35.55,119.97,
06/01/2021,01:09:13.23,290.53,-775.88,-6.35,48.90,-100.37,-11.34,-27.30,24.90,-31.80,35.55,119.97,
06/01/2021,01:09:13.24,313.48,-783.20,-125.49,29.33,-108.60,-19.21,-26.70,25.50,-28.65,35.36,119.97,
06/01/2021,01:09:13.25,300.29,-793.95,-158.69,23.78,-109.15,-25.12,-26.70,25.50,-28.65,35.55,119.97,
06/01/2021,01:09:13.25,284.67,-835.45,-164.55,18.72,-110.98,-25.18,-26.70,25.50,-28.65,35.27,119.97,
06/01/2021,01:09:13.26,266.60,-872.56,-161.13,18.96,-112.68,-29.57,-25.35,25.80,-28.65,35.07,119.97,
06/01/2021,01:09:13.27,211.43,-907.71,-138.67,16.28,-114.02,-30.43,-25.35,25.80,-28.65,35.55,119.97,
06/01/2021,01:09:13.28,130.86,-997.07,-63.96,17.26,-119.94,-28.17,-25.80,26.10,-27.75,35.36,119.97,
06/01/2021,01:09:13.29,108.89,-1015.62,-39.55,21.46,-122.26,-24.45,-26.25,24.60,-26.55,35.46,119.97,
06/01/2021,01:09:13.29,89.36,-1040.53,15.62,22.87,-120.79,-27.93,-26.25,24.60,-26.55,35.55,119.97,
06/01/2021,01:09:13.30,82.03,-1046.39,18.07,24.09,-122.38,-24.21,-24.15,25.50,-27.90,35.55,119.97,
06/01/2021,01:09:13.31,75.20,-1044.43,31.74,26.10,-120.79,-21.52,-24.15,25.50,-27.90,35.46,119.97,
06/01/2021,01:09:13.32,114.75,-1052.25,-6.84,28.41,-115.61,-12.87,-22.65,25.50,-27.90,35.27,119.97,
06/01/2021,01:09:13.33,135.74,-1039.55,-38.57,26.59,-114.02,-15.37,-22.65,25.50,-27.90,35.55,119.97,
06/01/2021,01:09:13.33,159.18,-1027.83,-54.20,27.13,-114.63,-17.07,-25.05,25.35,-26.55,35.46,119.97,
06/01/2021,01:09:13.34,180.18,-1032.23,-68.36,22.87,-112.80,-17.62,-23.10,24.75,-26.85,35.27,119.97,
06/01/2021,01:09:13.35,202.64,-1018.55,-79.10,24.33,-109.33,-15.18,-23.10,24.75,-26.85,35.55,119.97,
06/01/2021,01:09:13.36,233.89,-1021.48,-102.05,20.79,-110.18,-20.55,-23.70,23.40,-24.45,35.27,119.97,
06/01/2021,01:09:13.37,268.07,-995.12,-111.82,17.20,-110.18,-23.96,-23.70,23.40,-24.45,35.17,119.97,
06/01/2021,01:09:13.37,272.46,-979.98,-114.26,18.17,-111.16,-25.98,-21.15,25.50,-24.90,35.27,119.97,
06/01/2021,01:09:13.38,287.60,-957.03,-116.70,16.77,-115.79,-23.35,-20.70,24.60,-24.75,35.36,119.97,
06/01/2021,01:09:13.39,291.99,-944.34,-110.84,17.50,-116.65,-25.73,-20.70,24.60,-24.75,35.55,119.97,
06/01/2021,01:09:13.40,282.71,-910.64,-66.89,15.24,-125.85,-30.55,-22.65,23.55,-22.35,35.22,119.97,
06/01/2021,01:09:13.41,278.32,-893.07,-64.94,17.44,-129.15,-28.35,-22.65,23.55,-22.35,35.27,119.97,
06/01/2021,01:09:13.41,257.32,-902.83,-36.13,16.89,-130.12,-26.83,-22.65,23.55,-22.35,35.36,119.97,
06/01/2021,01:09:13.42,241.70,-886.23,-48.34,18.11,-133.23,-26.10,-19.95,23.40,-22.20,35.60,119.97,
06/01/2021,01:09:13.42,205.57,-892.09,-36.13,19.21,-136.59,-24.63,-19.95,23.40,-22.20,35.46,119.97,
06/01/2021,01:09:13.44,189.45,-891.60,-61.04,17.01,-135.12,-21.34,-20.70,21.45,-20.10,35.27,119.97,
06/01/2021,01:09:13.45,181.64,-881.35,-78.12,15.30,-133.17,-17.68,-20.70,21.45,-20.10,35.36,119.97,
06/01/2021,01:09:13.45,189.45,-893.07,-74.22,12.80,-133.48,-18.17,-19.50,22.95,-21.15,35.17,119.97,
06/01/2021,01:09:13.46,180.66,-889.65,-68.85,14.51,-131.65,-16.65,-19.50,22.95,-21.15,35.07,119.97,
06/01/2021,01:09:13.46,199.71,-913.09,-72.27,12.50,-131.65,-18.78,-18.30,22.35,-20.55,35.07,119.97,
06/01/2021,01:09:13.48,203.61,-901.86,-52.73,14.82,-130.67,-13.84,-18.00,22.65,-20.10,35.17,119.97,
06/01/2021,01:09:13.49,186.52,-914.55,-53.71,14.21,-130.49,-11.65,-18.00,22.65,-20.10,35.07,119.97,
06/01/2021,01:09:13.49,207.52,-909.18,-49.80,15.67,-127.99,-9.63,-17.70,22.65,-19.65,35.27,119.97,
06/01/2021,01:09:13.50,199.22,-931.15,-48.83,16.46,-127.87,-10.61,-17.70,22.65,-19.65,35.36,119.97,
06/01/2021,01:09:13.50,203.12,-951.66,-46.88,14.02,-125.61,-8.54,-17.70,22.65,-19.65,35.36,119.97,
06/01/2021,01:09:13.52,204.10,-975.10,-45.41,11.95,-122.80,-8.90,-17.10,23.55,-19.50,35.22,119.97,
06/01/2021,01:09:13.53,206.05,-980.47,-41.50,14.21,-125.06,-9.51,-19.50,22.20,-15.60,35.22,119.97,
06/01/2021,01:09:13.53,207.03,-983.89,-37.11,12.20,-122.74,-9.88,-17.70,23.40,-17.10,35.17,119.97,
06/01/2021,01:09:13.54,186.04,-984.86,-43.95,14.39,-122.01,-5.12,-17.70,23.40,-17.10,35.22,119.97,
06/01/2021,01:09:13.54,183.59,-980.96,-61.52,11.04,-121.04,-6.95,-15.90,23.40,-17.10,35.17,119.97,
06/01/2021,01:09:13.56,167.97,-1016.60,-114.26,10.55,-115.61,-3.78,-16.65,22.95,-16.35,35.41,119.97,
06/01/2021,01:09:13.57,142.58,-1004.88,-135.74,9.27,-114.45,-1.95,-17.85,20.85,-13.65,35.55,119.97,
06/01/2021,01:09:13.57,141.60,-1009.28,-133.79,9.88,-111.04,-0.37,-17.85,20.85,-13.65,35.36,119.97,
06/01/2021,01:09:13.58,144.53,-994.14,-154.79,9.21,-112.56,-0.98,-17.85,20.85,-13.65,35.55,119.97,
06/01/2021,01:09:13.58,129.88,-990.23,-167.48,5.24,-109.94,3.78,-15.90,22.20,-14.55,35.41,119.97,
06/01/2021,01:09:13.60,119.14,-964.36,-170.41,1.40,-110.06,9.45,-15.90,22.20,-14.55,35.70,119.97,
06/01/2021,01:09:13.61,106.45,-968.75,-158.69,4.94,-108.66,14.15,-16.65,22.20,-11.70,35.36,119.97,
06/01/2021,01:09:13.61,93.26,-973.63,-175.29,-0.49,-107.13,14.82,-16.65,22.20,-11.70,35.55,119.97,
06/01/2021,01:09:13.62,90.82,-956.54,-185.06,-1.59,-105.49,17.80,-15.15,23.40,-13.80,35.27,119.97,
06/01/2021,01:09:13.62,106.45,-976.56,-191.41,-4.02,-105.00,20.91,-14.70,23.40,-13.05,35.27,119.97,
06/01/2021,01:09:13.64,63.48,-990.72,-229.00,-10.67,-97.56,26.10,-15.45,22.65,-12.30,35.36,119.97,
06/01/2021,01:09:13.64,68.36,-1020.02,-243.16,-13.90,-94.27,25.67,-16.80,23.25,-10.65,35.17,119.97,
06/01/2021,01:09:13.68,51.27,-1154.30,-311.04,-24.45,-81.46,29.39,-14.55,24.00,-10.35,35.27,119.97,
06/01/2021,01:09:13.69,58.11,-1261.23,-271.00,-32.74,-72.80,24.82,-14.55,24.00,-10.35,35.22,119.97,
06/01/2021,01:09:13.70,127.93,-1300.29,-223.14,-36.83,-73.29,22.74,-14.85,23.25,-7.80,35.55,119.97,
06/01/2021,01:09:13.71,306.15,-1361.33,-18.55,-41.77,-86.59,5.37,-13.50,24.75,-7.80,35.36,119.97,
06/01/2021,01:09:13.72,366.70,-1347.17,64.45,-38.84,-91.71,3.35,-13.50,24.75,-7.80,35.46,119.97,
06/01/2021,01:09:13.73,382.32,-1292.97,85.94,-34.82,-95.98,-2.99,-12.45,24.15,-10.20,35.36,119.97,
06/01/2021,01:09:13.73,386.23,-1220.70,94.73,-28.90,-99.39,-8.17,-12.45,24.15,-10.20,35.55,119.97,
06/01/2021,01:09:13.74,331.54,-1150.88,68.85,-22.62,-101.40,-12.99,-12.45,24.60,-9.75,35.22,119.97,
06/01/2021,01:09:13.74,259.77,-1100.10,31.74,-11.59,-101.34,-12.01,-12.90,24.15,-6.90,35.07,119.97,
06/01/2021,01:09:13.76,114.26,-994.63,-110.35,4.39,-98.90,-13.29,-12.90,24.15,-6.90,35.36,119.97,
06/01/2021,01:09:13.77,60.06,-978.03,-121.58,8.11,-91.95,-8.54,-13.95,23.70,-6.90,35.55,119.97,
06/01/2021,01:09:13.77,47.36,-956.05,-140.62,5.91,-88.60,-6.52,-13.95,23.70,-6.90,35.07,119.97,
06/01/2021,01:09:13.78,-21.97,-939.94,-132.81,3.90,-84.27,-5.18,-13.95,23.70,-6.90,35.22,119.97,
06/01/2021,01:09:13.78,-27.34,-910.16,-118.16,-0.43,-79.82,-3.48,-13.95,23.70,-6.90,35.60,119.97,
06/01/2021,01:09:13.80,-57.13,-854.00,-32.23,-10.79,-73.41,1.71,-12.45,22.65,-5.85,35.46,119.97,
06/01/2021,01:09:13.80,-65.43,-816.41,-21.00,-12.44,-73.96,3.11,-13.20,24.15,-5.85,35.46,119.97,
06/01/2021,01:09:13.81,-54.69,-818.36,9.28,-13.17,-72.56,3.66,-13.20,24.15,-5.85,35.27,119.97,
06/01/2021,01:09:13.82,-57.13,-807.13,41.02,-14.02,-74.27,4.45,-12.90,23.70,-5.40,35.27,119.97,
06/01/2021,01:09:13.82,-63.96,-799.80,61.04,-14.09,-73.05,4.02,-12.90,23.70,-5.40,35.27,119.97,
06/01/2021,01:09:13.84,-41.99,-824.71,105.96,-9.33,-76.34,-1.34,-13.65,23.40,-5.10,35.36,119.97,
06/01/2021,01:09:13.84,-32.23,-845.70,124.02,-8.11,-72.56,-4.39,-13.65,23.40,-5.10,35.27,119.97,
06/01/2021,01:09:13.85,-25.88,-870.12,134.28,-3.41,-73.05,-6.46,-13.65,23.40,-5.10,35.60,119.97,
06/01/2021,01:09:13.86,-18.07,-887.70,125.98,0.00,-72.26,-3.23,-11.55,25.05,-5.25,35.27,119.97,
06/01/2021,01:09:13.86,0.00,-937.99,124.51,2.56,-77.68,-3.17,-11.55,25.05,-5.25,35.17,119.97,
06/01/2021,01:09:13.88,45.90,-1026.37,68.36,5.37,-84.94,-4.39,-14.25,22.35,-3.00,35.27,119.97,
06/01/2021,01:09:13.88,50.78,-1073.24,41.02,5.73,-94.51,-7.32,-14.25,22.35,-3.00,35.41,119.97,
06/01/2021,01:09:13.89,81.05,-1100.10,19.04,3.41,-99.21,-10.24,-12.45,24.15,-3.90,35.36,119.97,
06/01/2021,01:09:13.89,81.05,-1144.53,-5.86,0.85,-104.82,-13.23,-12.45,24.15,-3.90,35.55,119.97,
06/01/2021,01:09:13.90,85.94,-1179.69,-41.02,0.79,-110.55,-12.44,-12.30,24.75,-3.75,35.36,119.97,
06/01/2021,01:09:13.91,84.47,-1181.15,-42.48,0.98,-114.02,-17.07,-13.05,25.05,-3.45,35.36,119.97,
06/01/2021,01:09:13.92,81.05,-1184.08,-31.74,2.44,-121.34,-21.10,-13.05,25.05,-3.45,35.41,119.97,
06/01/2021,01:09:13.93,84.47,-1164.55,-21.97,2.99,-123.78,-23.41,-14.25,25.50,-1.20,35.22,119.97,
06/01/2021,01:09:13.93,83.98,-1149.41,-13.67,5.49,-125.85,-22.20,-14.25,25.50,-1.20,35.55,119.97,
06/01/2021,01:09:13.94,70.80,-1115.23,-30.27,6.83,-125.85,-24.88,-14.25,25.50,-1.20,35.22,119.97,
06/01/2021,01:09:13.95,68.36,-1084.47,-28.81,9.21,-123.17,-23.96,-13.05,25.50,-1.20,35.46,119.97,
06/01/2021,01:09:13.96,23.44,-1009.77,-68.85,14.27,-117.32,-20.79,-14.85,24.75,0.90,35.36,119.97,
06/01/2021,01:09:13.97,25.88,-973.63,-73.24,15.49,-117.80,-21.04,-13.05,23.25,0.45,35.46,119.97,
06/01/2021,01:09:13.97,9.77,-962.40,-83.01,16.10,-112.93,-19.63,-13.05,23.25,0.45,35.55,119.97,
06/01/2021,01:09:13.98,7.81,-950.20,-97.17,16.34,-113.17,-20.24,-12.30,24.00,-0.90,35.36,119.97,
06/01/2021,01:09:13.99,1.95,-931.64,-111.82,15.85,-113.66,-14.15,-12.30,24.00,-0.90,35.46,119.97,
06/01/2021,01:09:14.00,18.55,-924.32,-104.00,12.80,-111.10,-16.28,-15.15,24.60,2.85,35.55,119.97,
06/01/2021,01:09:14.01,21.48,-905.76,-116.21,11.46,-111.22,-17.38,-15.15,24.60,2.85,35.46,119.97,
06/01/2021,01:09:14.01,16.11,-890.14,-104.98,10.37,-114.51,-14.82,-15.15,24.60,2.85,35.55,119.97,
06/01/2021,01:09:14.02,6.35,-888.18,-87.89,10.18,-116.83,-16.28,-13.65,23.40,2.55,35.55,119.97,
06/01/2021,01:09:14.03,11.72,-872.07,-65.92,8.05,-117.68,-20.73,-13.65,23.40,2.55,35.36,119.97,
06/01/2021,01:09:14.04,-2.44,-886.72,-41.99,12.20,-118.17,-17.68,-16.05,24.00,3.75,35.55,119.97,
06/01/2021,01:09:14.05,-16.60,-890.62,-36.62,14.57,-121.34,-17.56,-16.05,24.00,3.75,35.55,119.97,
06/01/2021,01:09:14.05,-36.13,-888.67,-27.83,14.33,-120.67,-19.15,-15.45,24.15,3.15,35.36,119.97,
06/01/2021,01:09:14.06,-44.92,-895.51,-38.57,14.33,-122.01,-17.38,-15.60,24.75,4.50,35.27,119.97,
06/01/2021,01:09:14.06,-61.52,-916.50,-23.44,14.57,-125.79,-16.52,-15.60,24.75,4.50,35.60,119.97,
06/01/2021,01:09:14.08,-120.12,-937.01,-59.08,14.27,-121.65,-14.15,-16.80,23.55,7.35,35.36,119.97,
06/01/2021,01:09:14.09,-112.30,-959.47,-65.43,14.76,-120.12,-12.99,-16.80,23.55,7.35,35.60,119.97,
06/01/2021,01:09:14.09,-140.14,-967.29,-72.27,14.70,-118.35,-13.05,-16.95,24.15,5.40,35.60,119.97,
06/01/2021,01:09:14.10,-135.74,-979.49,-83.50,12.93,-113.72,-12.44,-16.95,24.15,5.40,35.55,119.97,
06/01/2021,01:09:14.10,-142.58,-980.47,-82.52,12.99,-114.94,-11.65,-16.95,24.15,5.40,35.55,119.97,
06/01/2021,01:09:14.12,-145.51,-989.26,-114.75,14.82,-107.32,-10.55,-17.10,23.55,6.00,35.60,119.97,
06/01/2021,01:09:14.13,-129.88,-972.66,-124.51,11.52,-102.74,-11.04,-17.10,23.55,6.00,35.22,119.97,
06/01/2021,01:09:14.13,-116.21,-977.05,-137.21,12.68,-98.05,-10.18,-17.55,24.75,8.10,35.27,119.97,
06/01/2021,01:09:14.14,-120.12,-979.49,-136.23,12.07,-97.87,-9.82,-17.55,24.75,8.10,35.36,119.97,
06/01/2021,01:09:14.14,-101.56,-972.66,-138.18,13.11,-97.20,-9.70,-18.30,23.55,8.85,35.70,119.97,
06/01/2021,01:09:14.15,-100.10,-970.21,-147.46,13.72,-91.22,-9.57,-18.30,23.55,8.85,35.36,119.97,
06/01/2021,01:09:14.19,-101.56,-979.98,-129.39,-0.24,-68.23,-12.68,-20.55,22.35,11.85,35.55,119.97,
06/01/2021,01:09:14.21,-127.93,-989.26,-94.24,1.95,-63.66,-7.68,-19.95,22.65,10.95,35.75,119.97,
06/01/2021,01:09:14.21,-129.39,-978.03,-71.29,2.99,-60.61,-4.21,-19.95,22.65,10.95,35.36,119.97,
06/01/2021,01:09:14.22,-117.19,-972.66,-61.04,2.87,-57.26,-4.45,-19.95,22.65,10.95,35.55,119.97,
06/01/2021,01:09:14.22,-116.21,-968.75,-56.15,4.82,-61.04,-5.06,-18.75,23.40,11.25,35.55,119.97,
06/01/2021,01:09:14.24,-69.34,-974.61,-112.30,5.43,-60.91,-1.65,-19.35,24.75,10.05,35.60,119.97,
06/01/2021,01:09:14.25,-51.76,-979.98,-132.32,4.02,-61.40,-2.80,-21.90,23.55,13.20,35.22,119.97,
06/01/2021,01:09:14.25,-13.18,-977.54,-164.55,0.12,-60.37,-6.04,-21.90,23.55,13.20,35.22,119.97,
06/01/2021,01:09:14.26,0.98,-985.84,-199.71,-2.56,-64.39,-8.54,-19.80,24.30,11.85,35.60,119.97,
06/01/2021,01:09:14.26,27.83,-988.28,-233.89,-7.80,-65.18,-8.66,-20.10,25.05,11.85,35.36,119.97,
06/01/2021,01:09:14.28,79.10,-994.14,-292.48,-19.09,-67.26,-15.67,-21.75,24.15,12.30,35.36,119.97,
06/01/2021,01:09:14.29,77.15,-1011.72,-303.22,-25.55,-69.21,-20.43,-21.75,24.15,12.30,35.55,119.97,
06/01/2021,01:09:14.29,105.47,-1019.04,-324.22,-28.84,-69.70,-22.13,-21.75,24.15,12.30,35.36,119.97,
06/01/2021,01:09:14.30,129.39,-1025.39,-331.05,-29.88,-75.49,-26.16,-21.45,24.15,13.05,35.55,119.97,
06/01/2021,01:09:14.30,146.00,-1037.60,-350.10,-33.41,-78.23,-28.60,-22.20,23.40,11.25,35.55,119.97,
06/01/2021,01:09:14.32,202.64,-1133.30,-371.09,-45.30,-85.43,-32.38,-21.45,22.95,13.50,35.46,119.97,
06/01/2021,01:09:14.32,210.94,-1197.75,-321.29,-49.45,-89.27,-36.46,-22.95,23.70,14.25,35.55,119.97,
06/01/2021,01:09:14.33,220.21,-1248.54,-248.05,-50.85,-93.90,-37.44,-22.95,23.70,14.25,35.36,119.97,
06/01/2021,01:09:14.34,192.87,-1301.27,-174.80,-50.61,-97.38,-34.70,-22.20,24.60,13.80,34.93,119.97,
06/01/2021,01:09:14.34,173.83,-1332.03,-76.17,-48.23,-96.83,-34.57,-23.70,23.40,11.70,35.17,119.97,
06/01/2021,01:09:14.36,21.97,-1305.18,175.29,-25.49,-95.61,-28.54,-23.70,23.40,11.70,35.41,119.97,
06/01/2021,01:09:14.36,-3.42,-1284.18,225.10,-12.07,-91.52,-20.98,-25.65,23.25,13.20,35.36,119.97,
06/01/2021,01:09:14.37,-23.44,-1247.56,235.84,0.06,-81.83,-17.20,-25.65,23.25,13.20,35.60,119.97,
06/01/2021,01:09:14.38,-27.83,-1247.56,201.17,10.30,-79.51,-13.48,-25.65,23.25,13.20,35.60,119.97,
06/01/2021,01:09:14.38,1.46,-1257.32,149.90,13.90,-69.88,-10.79,-25.65,23.25,13.20,35.46,119.97,
06/01/2021,01:09:14.40,12.70,-1172.36,36.62,13.48,-57.07,0.18,-26.55,22.95,13.80,35.36,119.97,
06/01/2021,01:09:14.40,15.62,-1113.28,7.81,13.90,-53.41,2.13,-27.45,22.35,14.40,35.60,119.97,
06/01/2021,01:09:14.41,30.76,-1059.08,25.39,16.16,-52.99,0.67,-27.45,22.35,14.40,35.55,119.97,
06/01/2021,01:09:14.42,46.39,-990.72,29.30,16.52,-56.22,4.88,-26.10,23.25,12.90,35.27,119.97,
06/01/2021,01:09:14.42,64.94,-922.36,43.46,20.43,-57.26,6.40,-26.10,23.25,12.90,35.36,119.97,
06/01/2021,01:09:14.43,87.40,-863.28,61.52,20.98,-61.95,1.77,-24.00,23.40,14.55,35.46,119.97,
06/01/2021,01:09:14.44,213.87,-760.25,85.45,20.79,-86.71,-1.16,-26.10,24.30,14.70,35.36,119.97,
06/01/2021,01:09:14.45,251.46,-733.40,68.85,21.10,-96.71,-7.62,-26.10,24.30,14.70,35.36,119.97,
06/01/2021,01:09:14.46,277.34,-743.16,25.88,18.35,-103.35,-8.96,-27.15,24.75,14.40,35.46,119.97,
06/01/2021,01:09:14.46,298.34,-728.03,-13.18,14.45,-105.85,-13.41,-27.15,24.75,14.40,35.55,119.97,
06/01/2021,01:09:14.47,291.99,-767.09,-41.50,14.33,-106.83,-16.95,-27.15,24.75,14.40,35.22,119.97,
06/01/2021,01:09:14.48,220.70,-871.09,-106.93,11.65,-96.28,-24.94,-27.15,24.75,16.50,35.55,119.97,
06/01/2021,01:09:14.49,185.55,-908.20,-107.42,7.80,-89.15,-25.12,-29.40,20.85,18.00,35.55,119.97,
06/01/2021,01:09:14.50,126.46,-934.08,-107.42,8.96,-83.05,-27.62,-28.05,24.60,15.30,35.07,119.97,
06/01/2021,01:09:14.50,81.05,-974.61,-76.17,8.35,-75.18,-28.78,-28.05,24.60,15.30,35.36,119.97,
06/01/2021,01:09:14.51,18.55,-1001.46,-52.73,8.96,-71.22,-26.89,-28.50,23.40,15.60,35.22,119.97,
06/01/2021,01:09:14.52,-69.34,-1067.87,-9.28,15.98,-62.26,-16.16,-29.55,23.40,17.10,35.36,119.97,
06/01/2021,01:09:14.53,-109.38,-1087.40,32.71,16.52,-64.27,-10.37,-31.20,23.55,16.20,35.55,119.97,
06/01/2021,01:09:14.53,-91.31,-1088.38,30.76,19.09,-65.06,-6.28,-31.20,23.55,16.20,35.46,119.97,
06/01/2021,01:09:14.54,-93.26,-1089.36,44.43,18.17,-66.28,-3.54,-31.20,23.55,16.20,35.46,119.97,
06/01/2021,01:09:14.55,-88.38,-1065.43,36.62,19.70,-64.57,1.52,-30.15,24.75,17.25,35.27,119.97,
06/01/2021,01:09:14.56,-15.62,-1057.13,-15.62,16.04,-57.74,6.59,-30.15,24.75,17.25,35.36,119.97,
06/01/2021,01:09:14.57,11.72,-1026.37,-43.46,16.52,-54.70,5.79,-31.05,24.15,17.85,35.36,119.97,
06/01/2021,01:09:14.57,35.16,-1031.25,-64.45,14.94,-54.39,1.71,-31.05,24.15,17.85,35.03,119.97,
06/01/2021,01:09:14.58,51.27,-1019.53,-77.64,11.65,-52.74,-1.16,-30.45,23.55,16.50,35.17,119.97,
06/01/2021,01:09:14.59,70.80,-992.19,-102.54,9.88,-55.43,-3.66,-30.45,23.55,16.50,35.22,119.97,
06/01/2021,01:09:14.60,92.29,-948.24,-142.09,7.56,-53.05,-7.99,-31.65,23.25,19.05,35.27,119.97,
06/01/2021,01:09:14.61,93.75,-941.41,-154.79,8.78,-50.12,-10.37,-31.95,24.00,18.00,35.60,119.97,
06/01/2021,01:09:14.61,83.01,-929.20,-154.30,3.23,-44.63,-11.83,-31.95,24.00,18.00,35.46,119.97,
06/01/2021,01:09:14.62,61.04,-924.80,-141.60,3.23,-43.72,-11.22,-31.35,23.70,16.80,35.27,119.97,
06/01/2021,01:09:14.63,42.48,-916.99,-130.37,3.78,-44.15,-11.71,-31.35,23.70,16.80,35.07,119.97,
06/01/2021,01:09:14.63,18.07,-896.97,-123.54,3.90,-43.48,-13.54,-31.35,23.70,16.80,35.46,119.97,
06/01/2021,01:09:14.65,-20.02,-892.58,-115.72,4.27,-34.94,-7.20,-32.10,25.65,17.85,35.27,119.97,
06/01/2021,01:09:14.65,-35.16,-902.83,-109.86,4.02,-32.32,-6.46,-32.10,25.65,17.85,35.36,119.97,
06/01/2021,01:09:14.66,-45.41,-913.09,-104.49,2.50,-30.85,-4.27,-33.30,23.70,15.60,35.55,119.97,
06/01/2021,01:09:14.67,-35.64,-917.48,-88.87,2.50,-25.85,-3.60,-33.30,23.70,15.60,35.46,119.97,
06/01/2021,01:09:14.70,-26.86,-936.52,-139.16,-0.12,-3.17,2.01,-33.00,24.75,17.70,35.41,119.97,
06/01/2021,01:09:14.72,26.86,-961.91,-172.36,-3.17,10.61,7.32,-33.75,22.35,19.50,35.55,119.97,
06/01/2021,01:09:14.73,38.57,-958.01,-182.62,-4.94,16.22,5.00,-33.75,22.35,19.50,35.55,119.97,
06/01/2021,01:09:14.73,57.13,-957.03,-171.39,-4.70,17.68,3.35,-32.70,25.05,19.05,35.60,119.97,
06/01/2021,01:09:14.74,73.73,-938.48,-168.95,-7.32,20.37,2.13,-32.70,25.05,19.05,35.17,119.97,
06/01/2021,01:09:14.75,91.80,-936.04,-179.20,-4.94,24.33,5.06,-32.70,25.05,19.05,35.36,119.97,
06/01/2021,01:09:14.76,88.87,-928.71,-173.34,-5.61,26.40,6.04,-33.30,23.70,18.90,35.36,119.97,
06/01/2021,01:09:14.77,63.48,-947.27,-174.80,-5.67,26.28,5.91,-33.30,23.70,18.90,35.55,119.97,
06/01/2021,01:09:14.77,72.75,-945.31,-182.62,-4.70,27.20,4.76,-33.30,24.90,17.85,35.55,119.97,
06/01/2021,01:09:14.78,55.18,-963.87,-193.36,-5.49,27.20,6.16,-33.30,24.90,17.85,35.27,119.97,
06/01/2021,01:09:14.78,53.22,-965.33,-188.48,-8.05,27.93,4.70,-31.35,25.65,17.55,35.55,119.97,
06/01/2021,01:09:14.79,64.94,-959.47,-176.27,-10.18,29.88,6.28,-31.95,25.05,16.20,35.60,119.97,
06/01/2021,01:09:14.81,65.92,-961.91,-168.95,-10.30,34.27,8.11,-32.55,25.35,19.35,35.89,119.97,
06/01/2021,01:09:14.81,82.03,-967.29,-166.99,-10.79,33.84,10.00,-32.55,25.35,19.35,35.70,119.97,
06/01/2021,01:09:14.82,90.82,-962.89,-144.04,-9.63,34.27,9.21,-32.55,25.35,19.35,35.36,119.97,
06/01/2021,01:09:14.82,92.29,-962.40,-141.60,-10.12,35.91,7.99,-31.95,25.50,17.25,35.07,119.97,
06/01/2021,01:09:14.83,96.19,-964.84,-134.28,-16.10,37.20,7.87,-31.95,25.50,17.25,35.22,119.97,
06/01/2021,01:09:14.84,138.18,-983.40,-134.28,-12.87,38.84,6.16,-30.30,22.95,18.15,35.27,119.97,
06/01/2021,01:09:14.85,138.67,-994.14,-138.18,-13.90,38.84,8.05,-33.60,24.60,17.55,35.46,119.97,
06/01/2021,01:09:14.86,145.02,-1011.23,-144.04,-17.74,37.99,5.85,-33.60,24.60,17.55,35.55,119.97,
06/01/2021,01:09:14.86,151.37,-1022.46,-169.43,-17.93,40.73,6.40,-31.20,22.80,16.20,35.46,119.97,
06/01/2021,01:09:14.87,144.53,-1030.76,-179.20,-20.49,42.13,1.10,-31.20,22.80,16.20,35.27,119.97,
06/01/2021,01:09:14.88,134.77,-1034.67,-220.70,-22.74,45.85,4.02,-31.20,24.00,16.95,35.36,119.97,
06/01/2021,01:09:14.89,115.23,-1043.95,-255.86,-24.82,47.32,4.63,-31.20,24.00,16.95,35.46,119.97,
06/01/2021,01:09:14.90,104.49,-1047.85,-293.95,-25.12,46.52,5.91,-30.45,23.55,18.00,35.41,119.97,
06/01/2021,01:09:14.90,72.75,-1066.41,-333.50,-27.74,49.76,6.16,-30.45,23.55,18.00,35.55,119.97,
06/01/2021,01:09:14.91,34.67,-1108.40,-359.38,-29.27,50.98,6.65,-30.45,23.55,18.00,35.36,119.97,
06/01/2021,01:09:14.92,-42.97,-1294.92,-346.68,-41.77,48.78,8.48,-29.70,22.80,15.15,35.36,119.97,
06/01/2021,01:09:14.93,-35.64,-1367.68,-296.39,-46.65,48.96,6.22,-29.70,22.80,15.15,35.60,119.97,
06/01/2021,01:09:14.94,-51.27,-1427.25,-189.94,-49.63,50.85,6.46,-28.65,24.75,15.90,35.46,119.97,
06/01/2021,01:09:14.94,-29.30,-1451.17,-57.13,-50.24,49.21,3.05,-28.65,24.75,15.90,35.36,119.97,
06/01/2021,01:09:14.95,0.98,-1454.59,68.36,-45.30,48.54,4.88,-28.65,24.30,13.95,35.46,119.97,
06/01/2021,01:09:14.95,52.25,-1403.32,174.80,-38.17,42.74,-0.98,-28.65,23.55,14.70,35.36,119.97,
06/01/2021,01:09:14.97,152.83,-1260.74,259.77,-11.10,11.22,-2.50,-28.80,23.70,15.60,35.55,119.97,
06/01/2021,01:09:14.98,160.64,-1232.91,192.87,2.07,-1.28,-1.40,-28.65,23.25,15.45,35.41,119.97,
06/01/2021,01:09:14.98,167.97,-1201.17,109.38,13.23,-13.48,-2.68,-28.65,23.25,15.45,35.41,119.97,
06/01/2021,01:09:14.99,132.32,-1202.64,21.48,17.44,-17.68,-3.60,-29.85,24.15,15.30,35.60,119.97,
06/01/2021,01:09:14.99,100.59,-1165.04,-27.83,21.28,-21.46,-5.24,-29.85,24.15,15.30,35.46,119.97,
06/01/2021,01:09:15.01,-4.39,-1082.52,-125.98,19.39,-4.51,-8.41,-29.85,22.95,14.85,35.36,119.97,
06/01/2021,01:09:15.01,-57.13,-1041.50,-144.04,17.93,3.41,-8.17,-29.85,22.95,14.85,35.17,119.97,
06/01/2021,01:09:15.02,-144.53,-993.16,-161.62,14.57,11.89,-3.90,-29.85,22.95,14.85,35.22,119.97,
06/01/2021,01:09:15.03,-214.84,-949.71,-111.82,9.82,22.07,-5.43,-28.20,24.75,13.95,35.55,119.97,
06/01/2021,01:09:15.03,-304.20,-902.34,-95.21,8.41,32.87,-0.73,-28.20,24.75,13.95,35.22,119.97,
06/01/2021,01:09:15.05,-473.14,-829.10,20.02,7.87,52.01,12.68,-29.70,24.00,15.45,35.07,119.97,
06/01/2021,01:09:15.05,-519.53,-800.78,63.48,10.73,62.32,16.22,-31.05,23.40,16.05,35.36,119.97,
06/01/2021,01:09:15.06,-544.92,-783.69,90.82,11.77,71.77,22.26,-31.05,23.40,16.05,35.36,119.97,
06/01/2021,01:09:15.07,-562.01,-775.88,119.63,16.28,78.17,26.52,-28.05,24.90,13.50,35.41,119.97,
06/01/2021,01:09:15.07,-542.48,-761.72,144.53,15.79,84.45,27.99,-28.05,24.90,13.50,35.55,119.97,
06/01/2021,01:09:15.09,-417.97,-800.78,120.12,15.00,88.54,30.49,-27.30,23.70,13.80,35.36,119.97,
06/01/2021,01:09:15.09,-352.54,-816.89,87.89,14.76,83.23,29.09,-27.30,23.70,13.80,35.75,119.97,
06/01/2021,01:09:15.10,-272.46,-861.33,72.75,15.37,78.48,29.09,-27.45,24.75,15.15,35.22,119.97,
06/01/2021,01:09:15.11,-179.20,-906.25,54.20,8.96,72.99,27.13,-24.60,25.80,14.70,35.27,119.97,
06/01/2021,01:09:15.11,-98.14,-926.27,29.79,6.71,65.79,28.11,-24.60,25.80,14.70,35.17,119.97,
06/01/2021,01:09:15.12,-35.64,-960.94,17.58,7.07,61.65,27.68,-25.50,26.10,14.55,35.27,119.97,
06/01/2021,01:09:15.13,133.79,-995.61,-7.81,9.82,48.35,22.74,-24.90,25.50,13.65,35.41,119.97,
06/01/2021,01:09:15.14,135.74,-1007.32,7.32,9.94,42.93,15.49,-28.80,24.60,15.60,35.36,119.97,
06/01/2021,01:09:15.14,116.21,-999.02,16.11,11.40,39.39,6.83,-28.80,24.60,15.60,35.36,119.97,
06/01/2021,01:09:15.15,107.91,-1014.16,2.93,15.91,36.46,1.28,-26.10,25.05,13.95,35.17,119.97,
06/01/2021,01:09:15.16,70.80,-1013.67,-1.95,19.57,33.35,-0.85,-26.10,25.05,13.95,35.46,119.97,
06/01/2021,01:09:15.17,-7.81,-1000.49,-15.14,28.90,35.12,-4.39,-25.50,25.35,14.85,35.60,119.97,
06/01/2021,01:09:15.20,-146.48,-1011.72,-84.47,29.57,45.91,-2.87,-26.25,24.60,15.30,35.55,119.97,
06/01/2021,01:09:15.22,-176.27,-1001.46,-84.47,22.26,46.04,0.06,-26.25,26.40,16.05,35.41,119.97,
06/01/2021,01:09:15.23,-184.57,-978.52,-80.57,21.34,48.54,2.56,-26.25,26.40,16.05,35.36,119.97,
06/01/2021,01:09:15.23,-194.34,-969.73,-81.05,17.01,48.35,5.85,-25.65,27.45,15.15,35.41,119.97,
06/01/2021,01:09:15.25,-217.29,-901.86,-72.27,13.11,48.84,8.17,-24.30,26.10,14.55,35.36,119.97,
06/01/2021,01:09:15.25,-184.08,-896.97,-77.15,14.21,48.41,8.54,-24.30,26.10,14.55,35.60,119.97,
06/01/2021,01:09:15.26,-169.43,-895.51,-70.80,11.34,47.99,7.38,-24.00,26.40,14.25,35.55,119.97,
06/01/2021,01:09:15.26,-166.02,-896.00,-64.45,13.60,46.71,11.10,-24.00,26.40,14.25,35.27,119.97,
06/01/2021,01:09:15.27,-137.70,-899.90,-55.66,11.89,44.88,6.65,-24.00,26.40,14.25,35.46,119.97,
06/01/2021,01:09:15.29,-115.72,-920.41,-39.55,9.63,37.56,11.34,-22.35,27.00,13.65,35.07,119.97,
06/01/2021,01:09:15.29,-117.68,-938.48,-47.36,9.51,36.95,6.59,-26.55,24.90,15.30,35.22,119.97,
06/01/2021,01:09:15.30,-105.96,-936.52,-36.62,10.67,39.09,7.50,-22.65,27.75,12.90,35.60,119.97,
06/01/2021,01:09:15.30,-110.84,-940.92,-50.29,11.59,34.21,4.63,-22.65,27.75,12.90,35.41,119.97,
06/01/2021,01:09:15.31,-120.61,-939.45,-63.48,11.10,35.30,4.09,-24.00,26.85,13.80,35.36,119.97,
06/01/2021,01:09:15.32,-107.42,-954.10,-63.48,10.55,35.18,0.67,-24.00,26.85,13.80,35.22,119.97,
06/01/2021,01:09:15.35,-151.37,-935.06,-97.17,10.43,34.45,-3.48,-24.15,26.70,13.65,35.27,119.97,
06/01/2021,01:09:15.35,-155.76,-941.41,-103.52,8.23,35.43,-5.43,-26.10,26.70,17.25,35.36,119.97,
06/01/2021,01:09:15.36,-154.30,-941.89,-101.07,5.55,36.46,-5.30,-26.10,26.70,17.25,35.60,119.97,
06/01/2021,01:09:15.36,-136.72,-938.96,-113.77,8.05,35.12,-5.73,-26.10,26.70,17.25,35.36,119.97,
06/01/2021,01:09:15.37,-158.20,-942.38,-119.63,2.68,36.40,-8.48,-23.10,28.95,15.15,35.22,119.97,
06/01/2021,01:09:15.39,-144.04,-946.29,-125.98,0.61,34.82,-7.01,-20.70,25.65,13.80,35.36,119.97,
06/01/2021,01:09:15.39,-144.53,-962.40,-122.56,0.73,31.95,-5.00,-25.05,25.65,16.05,35.36,119.97,
06/01/2021,01:09:15.40,-148.93,-973.14,-95.70,0.98,32.01,-6.28,-25.05,25.65,16.05,35.60,119.97,
06/01/2021,01:09:15.40,-149.90,-965.82,-85.45,1.83,32.38,-5.12,-21.00,28.80,12.00,35.55,119.97,
06/01/2021,01:09:15.41,-134.28,-966.31,-76.66,-1.16,30.98,-5.61,-21.75,28.80,13.05,35.55,119.97,
06/01/2021,01:09:15.42,-151.37,-973.14,-47.36,-2.56,31.46,-6.46,-22.50,26.40,13.80,35.22,119.97,
06/01/2021,01:09:15.43,-158.69,-968.26,-37.60,-1.71,31.46,-5.67,-22.50,26.40,13.80,35.46,119.97,
06/01/2021,01:09:15.44,-167.48,-996.09,-45.41,-1.46,32.87,-6.46,-22.50,26.40,13.80,35.55,119.97,
06/01/2021,01:09:15.44,-168.46,-995.61,-50.29,-0.73,34.63,-6.65,-21.45,28.05,12.75,35.46,119.97,
06/01/2021,01:09:15.45,-185.06,-1021.48,-62.50,1.10,37.20,-7.13,-21.45,28.05,12.75,35.46,119.97,
06/01/2021,01:09:15.46,-195.80,-1049.32,-95.70,-2.93,41.10,-10.12,-21.45,26.85,12.75,35.36,119.97,
06/01/2021,01:09:15.47,-195.80,-1098.14,-136.23,-2.26,39.82,-3.96,-21.45,26.85,12.75,35.55,119.97,
06/01/2021,01:09:15.48,-184.57,-1122.07,-162.11,-6.59,41.34,-9.39,-23.10,27.45,13.20,35.55,119.97,
06/01/2021,01:09:15.48,-174.32,-1129.39,-195.80,-9.94,39.21,-9.39,-21.45,28.05,12.30,35.55,119.97,
06/01/2021,01:09:15.49,-176.27,-1154.30,-235.84,-13.84,35.06,-8.54,-21.45,28.05,12.30,35.22,119.97,
06/01/2021,01:09:15.49,-174.32,-1165.53,-242.68,-17.13,33.84,-9.70,-20.55,28.95,10.65,35.36,119.97,
06/01/2021,01:09:15.51,-128.42,-1169.92,-290.04,-24.45,32.99,-10.12,-19.35,27.45,13.65,35.27,119.97,
06/01/2021,01:09:15.52,-127.93,-1168.46,-298.83,-28.72,31.40,-13.17,-22.50,24.90,12.00,35.22,119.97,
06/01/2021,01:09:15.52,-117.19,-1167.97,-314.45,-28.60,31.65,-16.16,-22.50,24.90,12.00,35.22,119.97,
06/01/2021,01:09:15.53,-100.10,-1142.58,-320.31,-31.34,31.77,-14.09,-22.50,24.90,12.00,35.55,119.97,
06/01/2021,01:09:15.53,-97.66,-1168.95,-328.61,-35.06,36.95,-13.54,-20.25,27.15,11.70,35.75,119.97,
06/01/2021,01:09:15.55,-86.91,-1225.59,-248.54,-49.88,32.74,-9.70,-20.25,27.15,11.70,35.46,119.97,
06/01/2021,01:09:15.55,-113.28,-1243.16,-175.29,-50.85,26.77,-9.76,-23.40,26.25,12.15,35.70,119.97,
06/01/2021,01:09:15.56,-131.84,-1256.35,-119.63,-55.00,27.26,-6.65,-23.40,26.25,12.15,35.41,119.97,
06/01/2021,01:09:15.57,-159.67,-1237.30,-45.90,-50.79,28.23,-1.22,-20.25,26.40,11.70,35.55,119.97,
06/01/2021,01:09:15.57,-213.38,-1230.96,34.18,-43.72,33.23,0.55,-19.50,27.15,10.20,35.55,119.97,
06/01/2021,01:09:15.59,-254.88,-1195.31,117.19,-20.91,59.27,9.33,-21.00,26.85,10.20,35.55,119.97,
06/01/2021,01:09:15.59,-224.12,-1173.34,119.14,-10.79,65.49,14.70,-22.95,25.65,11.70,35.55,119.97,
06/01/2021,01:09:15.60,-182.13,-1142.58,142.58,-4.63,76.46,14.82,-22.95,25.65,11.70,35.70,119.97,
06/01/2021,01:09:15.61,-135.74,-1105.47,138.18,-0.37,79.57,17.80,-19.95,27.60,9.00,35.27,119.97,
06/01/2021,01:09:15.61,-83.01,-1048.34,133.30,-2.07,80.67,15.49,-19.95,27.60,9.00,35.22,119.97,
06/01/2021,01:09:15.63,30.76,-956.54,108.89,-6.46,75.18,13.35,-20.55,25.50,9.60,35.60,119.97,
06/01/2021,01:09:15.63,82.52,-929.20,107.91,-5.85,72.99,11.46,-22.50,25.65,9.45,35.36,119.97,
06/01/2021,01:09:15.64,136.23,-912.60,119.63,-9.70,71.22,9.88,-22.50,25.65,9.45,35.36,119.97,
06/01/2021,01:09:15.64,186.04,-874.51,113.28,-11.04,61.46,6.77,-19.35,27.75,8.10,35.55,119.97,
06/01/2021,01:09:15.65,245.12,-869.63,114.26,-13.54,53.41,4.33,-19.35,27.75,8.10,35.46,119.97,
06/01/2021,01:09:15.67,315.43,-845.70,104.49,-16.89,32.62,-1.10,-21.45,28.05,9.45,35.55,119.97,
06/01/2021,01:09:15.67,328.61,-858.89,102.05,-15.73,29.02,-6.28,-21.45,28.05,9.45,35.70,119.97,
06/01/2021,01:09:15.68,299.32,-884.77,88.38,-12.74,29.15,-10.00,-20.55,28.20,8.55,35.55,119.97,
06/01/2021,01:09:15.71,-3.91,-1048.34,-15.62,16.10,49.63,-5.55,-20.10,25.80,10.35,35.41,119.97,
06/01/2021,01:09:15.73,-94.73,-1080.57,-34.18,19.57,59.70,7.56,-19.35,26.70,10.05,35.46,119.97,
06/01/2021,01:09:15.74,-131.84,-1063.48,-22.46,18.66,66.77,14.09,-19.35,26.25,8.10,35.60,119.97,
06/01/2021,01:09:15.75,-122.07,-1035.16,-6.84,16.10,65.43,19.02,-19.50,26.85,9.45,35.17,119.97,
06/01/2021,01:09:15.75,-91.31,-1013.67,-14.16,18.66,65.18,20.24,-19.50,26.85,9.45,35.46,119.97,
06/01/2021,01:09:15.76,-69.34,-1005.37,-16.60,17.32,61.10,22.13,-18.30,28.20,7.80,35.36,119.97,
06/01/2021,01:09:15.76,-46.39,-974.12,-10.74,17.07,60.12,20.24,-18.45,27.60,6.45,35.46,119.97,
06/01/2021,01:09:15.77,-38.09,-964.36,-12.70,17.07,58.35,20.98,-18.45,27.60,6.45,35.55,119.97,
06/01/2021,01:09:15.79,14.65,-912.60,-54.69,11.71,54.39,13.96,-17.70,26.85,9.00,35.46,119.97,
06/01/2021,01:09:15.79,15.14,-899.41,-53.71,9.88,53.90,10.43,-17.70,26.85,9.00,35.17,119.97,
06/01/2021,01:09:15.80,27.83,-897.46,-72.75,8.54,52.87,6.65,-17.70,26.85,9.00,35.46,119.97,
06/01/2021,01:09:15.80,41.99,-889.65,-106.45,7.07,51.46,7.32,-17.70,26.85,9.00,35.60,119.97,
06/01/2021,01:09:15.81,48.34,-883.30,-107.91,6.10,53.17,8.48,-16.80,27.75,7.05,35.22,119.97,
06/01/2021,01:09:15.82,98.14,-902.83,-130.86,4.82,55.73,-1.46,-18.00,28.05,6.75,35.60,119.97,
06/01/2021,01:09:15.83,86.91,-898.93,-137.70,6.28,56.10,1.28,-18.00,28.05,8.70,35.55,119.97,
06/01/2021,01:09:15.84,107.91,-909.67,-117.19,8.60,54.33,0.67,-16.80,28.95,5.25,35.70,119.97,
06/01/2021,01:09:15.84,110.35,-922.85,-109.86,8.29,55.18,1.04,-16.80,28.95,5.25,35.46,119.97,
06/01/2021,01:09:15.85,101.56,-914.55,-99.61,9.21,54.63,4.70,-16.35,27.75,5.25,35.55,119.97,
06/01/2021,01:09:15.85,86.43,-927.73,-113.77,5.85,53.78,1.10,-16.35,27.75,5.25,35.36,119.97,
06/01/2021,01:09:15.87,85.94,-936.04,-95.70,7.20,49.94,1.28,-16.80,27.75,4.50,35.22,119.97,
06/01/2021,01:09:15.88,75.68,-932.62,-100.59,6.16,49.94,3.29,-16.80,27.75,4.50,35.27,119.97,
06/01/2021,01:09:15.88,84.96,-935.55,-104.00,6.34,49.15,5.12,-16.95,28.35,5.85,35.36,119.97,
06/01/2021,01:09:15.89,63.96,-934.57,-101.56,4.94,48.48,5.00,-16.95,28.35,5.85,35.46,119.97,
06/01/2021,01:09:15.89,83.98,-935.06,-103.03,4.76,47.26,2.93,-16.95,28.35,5.85,35.55,119.97,
06/01/2021,01:09:15.91,93.75,-937.50,-135.74,0.61,47.07,6.34,-16.80,27.45,5.25,35.36,119.97,
06/01/2021,01:09:15.91,84.96,-934.08,-134.28,2.20,43.35,6.28,-16.80,27.45,5.25,35.36,119.97,
06/01/2021,01:09:15.92,91.31,-938.96,-150.39,2.26,44.15,8.66,-16.65,28.80,3.15,35.36,119.97,
06/01/2021,01:09:15.93,90.33,-924.32,-149.41,1.83,42.13,9.94,-16.65,28.80,3.15,35.55,119.97,
06/01/2021,01:09:15.93,89.36,-919.43,-174.32,0.61,40.30,10.37,-15.90,28.80,6.15,35.36,119.97,
06/01/2021,01:09:15.95,95.70,-911.62,-182.13,3.84,36.28,13.54,-16.65,29.10,4.65,35.22,119.97,
06/01/2021,01:09:15.95,96.19,-902.83,-185.06,2.26,32.38,13.84,-17.85,27.75,4.80,35.55,119.97,
06/01/2021,01:09:15.96,75.68,-924.80,-181.15,4.33,29.94,15.55,-17.85,27.75,4.80,35.36,119.97,
06/01/2021,01:09:15.96,58.11,-936.04,-183.11,5.43,31.34,15.30,-17.85,27.75,4.80,35.22,119.97,
06/01/2021,01:09:15.97,52.25,-937.99,-190.43,5.67,31.89,18.72,-16.35,30.15,3.45,35.27,119.97,
06/01/2021,01:09:15.98,40.53,-942.87,-171.39,4.88,34.88,18.90,-16.35,30.15,3.45,35.60,119.97,
06/01/2021,01:09:15.99,29.30,-962.40,-152.34,6.89,35.06,20.91,-15.90,29.55,5.85,35.41,119.97,
06/01/2021,01:09:16.00,27.83,-958.01,-146.48,4.94,35.91,23.23,-15.90,29.55,5.85,35.07,119.97,
06/01/2021,01:09:16.00,6.84,-976.07,-131.35,4.76,34.70,23.78,-16.65,28.05,4.65,35.36,119.97,
06/01/2021,01:09:16.01,4.39,-971.68,-122.07,2.74,32.80,23.72,-15.30,30.15,3.00,35.36,119.97,
06/01/2021,01:09:16.01,0.00,-987.79,-129.39,6.10,34.21,26.40,-15.30,30.15,3.00,35.46,119.97,
06/01/2021,01:09:16.03,5.86,-1005.86,-117.68,-0.73,33.78,25.67,-15.15,28.35,5.85,35.22,119.97,
06/01/2021,01:09:16.04,-12.70,-1029.79,-124.02,-2.99,36.10,25.30,-15.15,28.35,5.85,35.22,119.97,
06/01/2021,01:09:16.04,-12.70,-1051.76,-153.81,-2.56,37.99,26.95,-14.55,31.20,3.75,35.41,119.97,
06/01/2021,01:09:16.05,-1.95,-1080.57,-164.55,-4.82,40.00,25.55,-14.55,31.20,3.75,35.36,119.97,
06/01/2021,01:09:16.05,-21.97,-1088.38,-220.70,-8.05,46.10,25.79,-14.55,31.20,3.75,35.27,119.97,
06/01/2021,01:09:16.06,-18.07,-1130.37,-243.65,-9.02,48.66,23.54,-16.20,31.05,3.15,35.22,119.97,
06/01/2021,01:09:16.08,-41.02,-1180.66,-319.34,-14.57,59.76,23.54,-16.20,31.05,3.15,35.27,119.97,
06/01/2021,01:09:16.08,-39.06,-1188.96,-349.61,-17.32,60.49,24.51,-16.65,29.10,4.35,35.55,119.97,
06/01/2021,01:09:16.09,-36.13,-1204.10,-368.65,-19.70,64.15,23.29,-16.65,29.10,4.35,35.55,119.97,
06/01/2021,01:09:16.09,-94.73,-1216.80,-383.79,-20.98,65.24,29.33,-14.25,31.65,2.70,35.36,119.97,
06/01/2021,01:09:16.10,-114.26,-1254.39,-396.48,-24.45,66.34,25.37,-14.70,29.85,1.35,35.36,119.97,
06/01/2021,01:09:16.12,-157.23,-1430.18,-313.96,-37.44,71.77,22.20,-15.45,29.85,3.15,35.36,119.97,
06/01/2021,01:09:16.12,-125.49,-1498.54,-205.57,-42.38,70.18,19.45,-15.60,31.20,3.45,35.36,119.97,
06/01/2021,01:09:16.13,-65.92,-1565.43,-60.06,-44.21,70.79,14.82,-15.60,31.20,3.45,35.36,119.97,
06/01/2021,01:09:16.13,-15.14,-1524.90,156.25,-35.30,63.29,12.20,-13.80,30.45,-0.90,35.03,119.97,
06/01/2021,01:09:16.14,39.06,-1474.61,352.05,-20.67,53.41,12.93,-13.80,30.45,-0.90,35.36,119.97,
06/01/2021,01:09:16.15,104.00,-1312.01,427.25,20.06,8.35,6.65,-13.80,30.45,3.00,35.60,119.97,
06/01/2021,01:09:16.16,68.36,-1262.21,317.87,31.16,3.41,1.04,-15.15,29.85,0.60,35.27,119.97,
06/01/2021,01:09:16.17,11.72,-1235.84,215.33,31.46,5.55,-0.37,-15.15,29.85,0.60,35.22,119.97,
06/01/2021,01:09:16.17,-38.57,-1199.22,114.26,26.10,10.61,-7.20,-13.80,30.15,1.50,35.36,119.97,
06/01/2021,01:09:16.18,-99.61,-1166.50,44.92,20.12,20.30,-6.10,-13.80,30.15,1.50,35.36,119.97,
06/01/2021,01:09:16.24,-316.41,-874.02,267.58,19.33,80.00,9.21,-14.70,29.55,3.60,35.22,119.97,
06/01/2021,01:09:16.25,-294.43,-850.59,240.72,29.15,89.94,13.23,-13.80,30.45,2.70,35.36,119.97,
06/01/2021,01:09:16.26,-292.97,-834.96,207.03,29.45,89.33,10.67,-13.80,30.45,2.70,35.27,119.97,
06/01/2021,01:09:16.27,-270.02,-850.59,174.32,24.94,87.56,14.88,-13.65,32.55,0.30,35.22,119.97,
06/01/2021,01:09:16.27,-244.14,-872.56,133.30,24.51,80.43,17.56,-13.65,31.80,-0.30,35.55,119.97,
06/01/2021,01:09:16.28,-205.57,-872.07,83.01,20.49,73.96,16.52,-13.65,31.80,-0.30,35.60,119.97,
06/01/2021,01:09:16.29,-73.73,-914.55,10.74,11.83,54.15,13.72,-13.80,31.20,0.45,35.27,119.97,
06/01/2021,01:09:16.30,-34.67,-915.53,-7.32,10.67,45.67,10.30,-13.80,31.20,0.45,35.27,119.97,
06/01/2021,01:09:16.31,13.67,-912.60,-31.74,4.45,40.43,9.88,-13.80,31.20,0.45,35.60,119.97,
06/01/2021,01:09:16.31,57.62,-920.90,-18.55,-1.89,36.34,3.23,-13.80,31.20,0.45,35.55,119.97,
06/01/2021,01:09:16.32,85.45,-908.69,1.95,-0.37,30.98,3.05,-12.30,31.95,-1.50,35.27,119.97,
06/01/2021,01:09:16.33,97.66,-924.32,28.32,-8.96,23.96,-7.13,-12.30,31.95,-1.50,35.55,119.97,
06/01/2021,01:09:16.34,105.47,-918.46,27.83,-4.27,23.60,-8.23,-13.65,30.30,1.35,35.07,119.97,
06/01/2021,01:09:16.34,95.70,-923.83,49.32,-4.45,23.72,-12.74,-12.00,33.60,-1.95,35.41,119.97,
06/01/2021,01:09:16.35,56.15,-919.92,67.87,-1.77,28.54,-13.90,-12.00,33.60,-1.95,35.55,119.97,
06/01/2021,01:09:16.36,42.97,-932.62,59.08,4.33,32.20,-15.79,-11.25,31.65,-1.20,35.60,119.97,
06/01/2021,01:09:16.37,-17.09,-926.76,34.67,13.05,35.18,-13.66,-9.30,31.65,-0.45,35.46,119.97,
06/01/2021,01:09:16.38,-44.43,-919.43,1.95,17.87,34.09,-15.18,-13.20,32.55,0.00,35.55,119.97,
06/01/2021,01:09:16.38,-75.68,-912.60,-12.70,17.38,31.95,-13.72,-13.20,32.55,0.00,35.36,119.97,
06/01/2021,01:09:16.39,-77.64,-915.04,-38.09,19.33,27.13,-10.61,-11.40,31.80,-1.05,35.60,119.97,
06/01/2021,01:09:16.39,-109.38,-915.04,-59.08,14.88,26.52,-9.15,-11.40,31.80,-1.05,35.36,119.97,
06/01/2021,01:09:16.40,-121.09,-900.88,-72.75,12.44,21.59,-7.20,-11.40,31.80,-1.05,35.36,119.97,
06/01/2021,01:09:16.42,-154.79,-876.95,-94.73,10.91,15.12,-2.87,-11.55,31.95,-1.95,35.17,119.97,
06/01/2021,01:09:16.42,-173.34,-857.42,-80.57,8.66,13.66,0.24,-11.55,31.95,-1.95,35.55,119.97,
06/01/2021,01:09:16.43,-152.34,-854.49,-66.89,9.27,10.30,2.87,-12.30,31.20,-1.20,35.55,119.97,
06/01/2021,01:09:16.43,-148.44,-857.42,-68.85,7.68,9.88,4.94,-12.30,31.20,-1.20,35.36,119.97,
06/01/2021,01:09:16.44,-127.93,-850.10,-71.78,5.43,9.51,2.99,-11.25,30.90,-1.95,35.46,119.97,
06/01/2021,01:09:16.45,-125.98,-879.39,-61.04,4.94,1.65,2.87,-12.00,32.40,-1.20,35.60,119.97,
06/01/2021,01:09:16.46,-130.86,-902.34,-84.96,2.68,7.32,0.37,-12.00,29.40,1.20,35.55,119.97,
06/01/2021,01:09:16.47,-108.40,-902.34,-69.82,5.24,3.11,1.71,-11.10,31.80,-0.30,35.17,119.97,
06/01/2021,01:09:16.47,-98.63,-933.59,-86.43,2.20,3.60,0.30,-11.10,31.80,-0.30,35.36,119.97,
06/01/2021,01:09:16.48,-108.89,-929.20,-89.36,5.43,-1.40,-0.12,-10.50,31.65,-0.90,35.27,119.97,
06/01/2021,01:09:16.49,-132.32,-935.06,-85.45,5.98,2.01,-1.65,-10.50,31.65,-0.90,35.07,119.97,
06/01/2021,01:09:16.50,-137.21,-948.24,-85.94,4.57,1.22,-2.32,-13.05,28.50,2.25,35.60,119.97,
06/01/2021,01:09:16.51,-143.07,-946.29,-99.61,9.09,0.49,0.61,-13.05,28.50,2.25,35.55,119.97,
06/01/2021,01:09:16.51,-144.53,-949.22,-101.07,5.18,4.21,-2.68,-13.05,28.50,2.25,35.36,119.97,
06/01/2021,01:09:16.52,-145.51,-940.92,-108.89,5.67,2.93,-6.22,-10.35,31.80,0.30,35.46,119.97,
06/01/2021,01:09:16.52,-132.81,-942.38,-113.77,3.54,2.13,-7.62,-10.35,31.80,0.30,35.60,119.97,
06/01/2021,01:09:16.54,-116.21,-932.13,-117.19,3.41,1.16,-7.80,-11.25,30.90,0.15,35.60,119.97,
06/01/2021,01:09:16.54,-105.96,-928.71,-124.51,1.77,1.28,-9.63,-11.25,30.90,0.15,35.22,119.97,
06/01/2021,01:09:16.55,-119.14,-936.04,-137.70,0.55,1.40,-10.43,-9.75,31.20,-0.90,35.55,119.97,
06/01/2021,01:09:16.56,-95.21,-940.92,-151.86,2.01,-1.52,-10.55,-9.75,31.20,-0.90,35.55,119.97,
06/01/2021,01:09:16.56,-97.17,-934.57,-147.46,1.83,-2.62,-11.65,-10.80,31.20,-1.20,35.55,119.97,
06/01/2021,01:09:16.58,-86.43,-937.50,-153.32,-3.41,-2.07,-10.73,-10.35,31.05,-0.30,35.46,119.97,
06/01/2021,01:09:16.58,-70.80,-949.22,-156.25,-4.94,-5.79,-14.63,-10.35,31.05,-0.30,35.55,119.97,
06/01/2021,01:09:16.59,-68.36,-958.01,-147.95,-6.22,-8.23,-16.28,-10.65,29.85,-2.55,35.60,119.97,
06/01/2021,01:09:16.59,-84.47,-957.03,-146.48,-6.28,-9.82,-15.73,-10.65,29.85,-2.55,35.27,119.97,
06/01/2021,01:09:16.60,-82.03,-961.91,-121.09,-7.74,-11.95,-14.88,-9.30,31.20,-1.50,35.60,119.97,
06/01/2021,01:09:16.62,-99.12,-965.82,-78.61,-4.63,-11.16,-16.28,-10.65,31.05,-0.60,35.41,119.97,
06/01/2021,01:09:16.62,-125.49,-974.61,-68.36,-1.34,-8.60,-14.09,-11.85,29.10,0.30,35.27,119.97,
06/01/2021,01:09:16.63,-123.54,-981.93,-49.32,-2.50,-4.88,-16.16,-9.75,31.65,-1.20,35.60,119.97,
06/01/2021,01:09:16.63,-145.51,-979.98,-41.50,-0.85,-2.44,-17.74,-9.75,31.65,-1.20,35.60,119.97,
06/01/2021,01:09:16.64,-151.37,-982.91,-59.57,0.18,-2.62,-16.71,-10.50,30.90,-1.20,35.27,119.97,
06/01/2021,01:09:16.66,-153.81,-1007.32,-101.56,-1.65,-0.91,-13.96,-10.50,30.90,-1.20,35.17,119.97,
06/01/2021,01:09:16.66,-165.04,-1014.65,-133.30,-5.98,-0.37,-17.32,-11.85,29.85,0.60,35.46,119.97,
06/01/2021,01:09:16.67,-147.95,-1027.34,-168.95,-7.50,0.06,-16.22,-11.85,29.85,0.60,35.55,119.97,
06/01/2021,01:09:16.67,-131.35,-1041.99,-202.64,-9.51,-3.35,-14.15,-11.85,29.85,0.60,35.36,119.97,
06/01/2021,01:09:16.68,-121.09,-1076.66,-255.86,-15.73,-5.06,-18.41,-9.30,29.40,-2.70,35.60,119.97,
06/01/2021,01:09:16.69,-62.01,-1121.09,-322.27,-28.84,-8.11,-20.43,-8.85,29.10,-1.35,35.27,119.97,
06/01/2021,01:09:16.73,26.86,-1366.21,-265.14,-57.07,-28.60,-22.80,-13.20,28.05,0.00,35.60,119.97,
06/01/2021,01:09:16.74,-52.73,-1395.02,-81.05,-50.55,-37.56,-18.41,-10.50,26.70,-0.15,35.55,119.97,
06/01/2021,01:09:16.75,-85.94,-1388.18,-0.49,-44.15,-31.22,-10.24,-12.30,27.45,-0.45,35.07,119.97,
06/01/2021,01:09:16.76,-148.93,-1375.00,55.18,-34.39,-24.88,-8.41,-12.30,27.45,-0.45,35.22,119.97,
06/01/2021,01:09:16.76,-194.82,-1345.21,78.12,-24.63,-14.82,-3.41,-12.30,27.45,-0.45,35.60,119.97,
06/01/2021,01:09:16.78,-213.38,-1309.08,99.61,-9.63,4.51,5.24,-9.30,27.75,-0.45,35.55,119.97,
06/01/2021,01:09:16.78,-188.96,-1265.62,78.61,-7.32,10.00,8.84,-11.10,27.60,-0.30,35.55,119.97,
06/01/2021,01:09:16.79,-136.72,-1219.73,70.31,-6.04,15.24,8.84,-11.10,27.60,-0.30,35.55,119.97,
06/01/2021,01:09:16.79,-82.52,-1164.55,43.46,-6.52,18.29,10.67,-9.30,28.95,-1.95,35.07,119.97,
06/01/2021,01:09:16.80,-40.04,-1108.89,27.83,-3.66,18.05,11.46,-9.75,28.95,-1.95,35.27,119.97,
06/01/2021,01:09:16.82,75.20,-992.68,51.27,-5.06,11.71,8.17,-11.40,28.05,-1.80,35.55,119.97,
06/01/2021,01:09:16.82,115.72,-940.43,72.27,-4.51,11.28,4.39,-12.00,27.45,-3.00,35.36,119.97,
06/01/2021,01:09:16.83,140.14,-895.51,94.24,0.18,8.66,3.84,-12.00,27.45,-3.00,35.36,119.97,
06/01/2021,01:09:16.83,176.27,-853.52,104.00,2.99,6.59,-0.37,-12.00,27.45,-3.00,35.55,119.97,
06/01/2021,01:09:16.84,198.24,-805.66,118.16,2.56,2.13,-3.35,-12.00,27.45,-3.00,35.60,119.97,
06/01/2021,01:09:16.85,253.91,-726.56,132.32,9.88,-8.84,-11.46,-10.05,28.50,-3.00,35.36,119.97,
06/01/2021,01:09:16.86,264.16,-700.68,117.19,11.16,-13.41,-12.50,-10.05,28.50,-3.00,35.55,119.97,
06/01/2021,01:09:16.87,269.04,-699.71,99.61,13.84,-17.68,-13.78,-10.80,28.50,-2.70,35.22,119.97,
06/01/2021,01:09:16.87,257.81,-714.36,92.29,12.01,-21.40,-17.62,-11.55,29.40,-3.75,35.46,119.97,
06/01/2021,01:09:16.88,237.79,-738.77,85.94,12.99,-23.78,-18.29,-11.55,29.40,-3.75,35.17,119.97,
06/01/2021,01:09:16.88,215.82,-751.46,49.80,12.13,-18.54,-18.48,-8.85,30.30,-3.15,35.22,119.97,
06/01/2021,01:09:16.90,92.29,-843.75,5.37,16.10,-7.26,-15.91,-9.30,28.50,-3.45,35.46,119.97,
06/01/2021,01:09:16.90,68.36,-866.21,-10.74,18.84,-5.24,-12.80,-11.10,28.35,-1.80,35.55,119.97,
06/01/2021,01:09:16.91,33.20,-891.60,-14.65,16.83,2.44,-7.62,-11.10,28.35,-1.80,35.22,119.97,
06/01/2021,01:09:16.92,-0.49,-928.71,-19.53,13.41,7.07,-2.50,-10.35,28.05,-2.85,35.41,119.97,
06/01/2021,01:09:16.92,-28.32,-948.24,-15.62,14.63,8.72,1.59,-10.35,28.05,-2.85,35.27,119.97,
06/01/2021,01:09:16.94,-36.62,-1000.00,-13.18,16.95,14.82,8.54,-11.25,28.50,-1.20,35.46,119.97,
06/01/2021,01:09:16.94,-32.23,-1025.39,-32.71,15.24,14.21,9.82,-11.85,27.15,-2.10,35.22,119.97,
06/01/2021,01:09:16.95,-20.02,-1025.88,-23.44,16.59,13.48,16.28,-11.85,27.15,-2.10,35.22,119.97,
06/01/2021,01:09:16.96,-19.04,-1041.50,-33.20,15.98,14.02,11.95,-10.65,28.80,-3.60,35.60,119.97,
06/01/2021,01:09:16.96,-10.74,-1038.09,-32.71,20.55,8.96,15.24,-10.65,28.80,-3.60,35.60,119.97,
06/01/2021,01:09:16.98,47.36,-1049.32,-54.20,13.23,7.99,10.91,-11.40,27.60,-2.10,35.36,119.97,
06/01/2021,01:09:16.98,58.59,-1055.66,-73.73,11.16,8.54,8.60,-11.40,27.60,-2.10,35.22,119.97,
06/01/2021,01:09:16.99,74.22,-1056.15,-76.66,7.38,9.09,7.26,-13.65,28.35,-2.10,35.27,119.97,
06/01/2021,01:09:16.99,91.80,-1034.18,-84.47,6.77,9.51,6.59,-13.65,28.35,-2.10,35.36,119.97,
06/01/2021,01:09:17.00,111.33,-1036.13,-98.63,3.96,5.24,5.91,-13.65,28.35,-2.10,35.22,119.97,
06/01/2021,01:09:17.01,110.35,-1014.65,-107.91,3.11,3.17,4.27,-10.05,30.15,-4.20,35.75,119.97,
06/01/2021,01:09:17.02,106.45,-971.68,-144.04,1.59,3.84,-0.06,-10.05,30.15,-4.20,35.55,119.97,
06/01/2021,01:09:17.03,102.05,-957.03,-132.81,0.98,2.38,-2.44,-11.85,28.80,-1.35,35.36,119.97,
06/01/2021,01:09:17.03,95.21,-950.68,-132.81,-1.34,5.30,-2.93,-11.85,28.80,-1.35,35.22,119.97,
06/01/2021,01:09:17.04,72.75,-938.48,-137.21,1.22,6.04,-2.56,-9.75,29.70,-3.45,35.60,119.97,
06/01/2021,01:09:17.04,63.48,-942.38,-119.63,-0.67,1.46,-0.12,-10.05,30.15,-3.75,35.55,119.97,
06/01/2021,01:09:17.06,59.57,-922.36,-129.39,-2.80,3.60,1.10,-11.10,28.35,-2.10,35.41,119.97,
06/01/2021,01:09:17.07,48.83,-923.34,-106.45,-0.37,3.90,5.67,-11.85,29.10,-2.55,35.36,119.97,
06/01/2021,01:09:17.07,47.85,-909.18,-108.89,-4.45,6.10,2.26,-11.85,29.10,-2.55,35.60,119.97,
06/01/2021,01:09:17.08,36.13,-917.97,-109.38,-2.56,6.83,3.35,-10.80,30.15,-3.45,35.36,119.97,
06/01/2021,01:09:17.08,62.01,-907.71,-112.79,-1.77,1.83,4.33,-10.80,30.15,-3.45,35.46,119.97,
06/01/2021,01:09:17.10,56.15,-911.13,-132.32,-3.60,8.35,8.48,-11.10,28.05,-2.10,35.22,119.97,
06/01/2021,01:09:17.10,58.59,-896.00,-135.25,-3.23,7.99,7.13,-11.10,28.05,-2.10,35.17,119.97,
06/01/2021,01:09:17.11,76.17,-898.44,-149.41,-1.65,7.32,9.27,-11.10,28.05,-2.10,35.55,119.97,
06/01/2021,01:09:17.12,61.52,-908.20,-151.86,-0.79,9.82,6.40,-10.65,29.55,-4.65,35.46,119.97,
06/01/2021,01:09:17.12,79.10,-911.13,-152.83,-2.32,8.11,10.91,-10.65,29.55,-4.65,35.27,119.97,
06/01/2021,01:09:17.13,74.22,-892.09,-169.92,2.38,7.99,10.30,-8.25,29.70,-6.75,35.36,119.97,
06/01/2021,01:09:17.14,68.85,-897.95,-166.50,-0.12,10.18,11.28,-9.00,28.95,-5.25,35.60,119.97,
06/01/2021,01:09:17.15,71.78,-914.55,-178.71,-4.57,10.12,11.04,-13.05,27.00,-1.95,35.60,119.97,
06/01/2021,01:09:17.15,47.85,-929.69,-177.25,-3.35,9.33,10.12,-9.30,29.70,-1.95,35.41,119.97,
06/01/2021,01:09:17.16,45.90,-916.99,-171.88,-3.84,6.83,11.89,-9.30,29.70,-4.20,35.41,119.97,
06/01/2021,01:09:17.17,48.83,-921.88,-175.29,-2.87,7.50,13.66,-10.35,29.85,-5.85,35.46,119.97,
06/01/2021,01:09:17.18,34.67,-948.73,-162.60,-8.17,9.33,16.59,-10.35,29.85,-5.85,35.46,119.97,
06/01/2021,01:09:17.19,37.60,-956.05,-168.46,-8.72,10.79,16.52,-10.50,30.45,-3.00,35.36,119.97,
06/01/2021,01:09:17.19,39.06,-955.57,-159.67,-10.85,10.73,15.06,-10.50,30.45,-3.00,35.60,119.97,
06/01/2021,01:09:17.20,24.41,-958.98,-148.93,-9.39,11.52,17.62,-10.50,30.45,-3.00,35.22,119.97,
06/01/2021,01:09:17.23,46.39,-1000.00,-152.83,-13.29,11.46,18.66,-10.80,29.40,-4.20,35.22,119.97,
06/01/2021,01:09:17.26,44.92,-1011.23,-205.08,-19.09,12.38,19.09,-10.50,31.65,-4.20,35.27,119.97,
06/01/2021,01:09:17.26,40.04,-1040.04,-251.46,-18.60,14.45,20.30,-10.50,31.65,-4.20,35.55,119.97,
06/01/2021,01:09:17.27,19.04,-1057.62,-247.56,-21.95,13.05,20.00,-10.50,31.65,-4.20,35.27,119.97,
06/01/2021,01:09:17.28,2.93,-1081.05,-287.60,-26.89,17.56,19.33,-10.50,31.65,-4.20,35.07,119.97,
06/01/2021,01:09:17.28,-20.02,-1126.95,-304.20,-29.76,17.50,19.15,-9.75,31.95,-6.30,35.17,119.97,
06/01/2021,01:09:17.30,-94.24,-1251.95,-333.98,-38.29,17.93,20.67,-9.75,31.95,-6.30,35.07,119.97,
06/01/2021,01:09:17.30,-113.28,-1324.22,-312.99,-43.48,19.57,23.41,-12.30,30.45,-4.20,35.27,119.97,
06/01/2021,01:09:17.31,-115.72,-1401.86,-252.44,-46.22,23.96,22.01,-9.00,31.20,-8.55,35.41,119.97,
06/01/2021,01:09:17.31,-96.68,-1455.57,-199.71,-49.02,25.00,23.29,-9.00,31.20,-8.55,35.22,119.97,
06/01/2021,01:09:17.32,-76.66,-1465.82,-110.84,-50.61,29.33,16.89,-10.35,32.25,-6.90,35.60,119.97,
06/01/2021,01:09:17.33,-16.11,-1477.54,-52.73,-45.12,30.61,15.00,-10.35,32.25,-6.90,35.55,119.97,
06/01/2021,01:09:17.34,94.24,-1310.06,52.25,-26.34,11.83,7.87,-9.00,31.95,-8.85,35.60,119.97,
06/01/2021,01:09:17.35,91.31,-1253.91,39.55,-14.51,0.91,10.12,-9.00,31.95,-8.85,35.22,119.97,
06/01/2021,01:09:17.35,71.29,-1217.77,5.86,1.22,-3.78,9.02,-11.10,31.05,-7.65,35.55,119.97,
06/01/2021,01:09:17.36,30.76,-1186.52,-46.39,11.34,-10.49,8.90,-11.10,31.05,-7.65,35.36,119.97,
06/01/2021,01:09:17.37,-21.00,-1173.34,-110.35,13.05,-11.28,9.15,-11.10,31.05,-7.65,35.27,119.97,
06/01/2021,01:09:17.38,-169.43,-1142.09,-148.44,11.59,8.96,5.12,-10.05,31.95,-8.10,35.60,119.97,
06/01/2021,01:09:17.39,-205.08,-1109.86,-146.48,8.48,19.57,8.54,-10.05,31.95,-8.10,35.17,119.97,
06/01/2021,01:09:17.39,-228.52,-1091.31,-133.30,1.89,27.80,7.50,-8.70,32.40,-8.10,35.55,119.97,
06/01/2021,01:09:17.40,-221.19,-1044.92,-106.45,-4.45,35.00,4.27,-8.70,32.40,-8.10,35.46,119.97,
06/01/2021,01:09:17.40,-213.38,-989.26,-71.78,-8.96,39.63,6.52,-8.85,33.75,-8.70,35.07,119.97,
06/01/2021,01:09:17.42,-232.42,-893.55,21.97,-10.67,47.74,7.07,-9.00,32.85,-7.35,35.22,119.97,
06/01/2021,01:09:17.43,-239.26,-853.52,67.38,-8.29,56.34,2.38,-9.00,32.85,-7.35,35.55,119.97,
06/01/2021,01:09:17.43,-234.86,-814.94,86.43,-1.71,57.74,3.60,-9.00,32.85,-10.35,34.93,119.97,
06/01/2021,01:09:17.44,-243.65,-807.62,111.82,3.84,62.62,2.56,-9.00,32.85,-10.35,35.27,119.97,
06/01/2021,01:09:17.44,-236.82,-811.52,125.49,9.21,68.96,-0.49,-8.70,34.35,-10.05,35.55,119.97,
06/01/2021,01:09:17.45,-224.12,-812.01,131.84,14.09,72.32,-1.34,-8.70,34.35,-10.05,35.46,119.97,
06/01/2021,01:09:17.47,-165.53,-842.29,111.82,21.83,64.21,-0.49,-11.10,33.00,-8.40,35.36,119.97,
06/01/2021,01:09:17.47,-127.93,-861.82,88.87,19.45,56.28,-1.77,-12.00,33.15,-10.05,35.55,119.97,
06/01/2021,01:09:17.48,-92.29,-893.07,57.13,17.80,47.32,1.52,-12.00,33.15,-10.05,35.60,119.97,
06/01/2021,01:09:17.48,-60.55,-900.88,27.83,13.41,33.84,-0.06,-8.85,34.50,-11.70,35.55,119.97,
06/01/2021,01:09:17.49,-34.18,-902.83,6.84,12.01,25.00,2.26,-8.85,34.50,-11.70,35.36,119.97,
06/01/2021,01:09:17.50,11.23,-900.88,-57.62,1.83,1.71,-6.65,-11.85,32.25,-12.30,35.22,119.97,
06/01/2021,01:09:17.51,20.51,-933.59,-73.73,4.27,-3.66,-7.07,-11.85,32.25,-12.30,35.36,119.97,
06/01/2021,01:09:17.52,11.72,-929.20,-78.61,4.70,-5.79,-5.37,-11.40,33.00,-10.50,35.60,119.97,
06/01/2021,01:09:17.52,30.76,-932.13,-90.33,1.71,-7.26,-10.00,-8.25,33.90,-11.85,35.17,119.97,
06/01/2021,01:09:17.53,38.57,-954.59,-86.43,3.60,-3.35,-11.46,-8.25,33.90,-11.85,35.55,119.97,
06/01/2021,01:09:17.54,33.69,-985.84,-81.54,7.13,-1.77,-14.39,-10.35,34.20,-13.05,35.55,119.97,
06/01/2021,01:09:17.55,15.62,-996.09,-77.64,12.32,-0.18,-14.02,-10.35,34.20,-13.05,35.27,119.97,
06/01/2021,01:09:17.56,-3.91,-995.61,-71.78,12.07,5.55,-14.27,-10.35,34.95,-10.20,35.55,119.97,
06/01/2021,01:09:17.56,-27.34,-982.91,-89.84,15.67,6.89,-15.73,-10.35,34.95,-10.20,35.60,119.97,
06/01/2021,01:09:17.57,-33.69,-969.24,-70.80,17.20,9.76,-13.29,-10.35,34.95,-10.20,35.22,119.97,
06/01/2021,01:09:17.58,-83.98,-963.38,-82.03,25.30,15.79,-9.70,-10.05,30.90,-11.10,35.36,119.97,
06/01/2021,01:09:17.59,-94.73,-944.82,-87.89,25.79,17.20,-11.52,-10.05,30.90,-11.10,35.36,119.97,
06/01/2021,01:09:17.59,-93.75,-923.83,-86.91,26.52,15.12,-11.34,-10.35,33.00,-13.80,35.46,119.97,
06/01/2021,01:09:17.60,-111.82,-910.64,-102.05,26.16,15.61,-10.73,-10.35,33.00,-13.80,35.36,119.97,
06/01/2021,01:09:17.61,-117.68,-910.64,-98.63,23.66,12.99,-6.77,-9.15,34.20,-11.25,35.55,119.97,
06/01/2021,01:09:17.61,-103.03,-881.35,-119.63,23.54,12.32,-7.32,-10.65,33.75,-13.05,35.36,119.97,
06/01/2021,01:09:17.63,-115.23,-869.63,-135.74,18.41,5.91,-4.88,-9.90,31.50,-12.30,35.36,119.97,
06/01/2021,01:09:17.63,-92.29,-872.07,-137.21,13.84,4.57,-5.24,-9.90,31.50,-12.30,35.55,119.97,
06/01/2021,01:09:17.64,-98.63,-865.72,-122.56,14.45,1.52,-8.23,-9.90,31.50,-12.30,35.46,119.97,
06/01/2021,01:09:17.65,-87.40,-874.02,-138.67,10.67,-0.24,-4.57,-11.25,33.90,-12.60,35.36,119.97,
06/01/2021,01:09:17.65,-102.05,-871.09,-111.82,11.28,-2.50,-4.15,-11.25,33.90,-12.60,35.27,119.97,
06/01/2021,01:09:17.67,-89.36,-904.79,-115.23,15.18,-11.16,-1.95,-11.55,32.40,-10.65,35.41,119.97,
06/01/2021,01:09:17.67,-97.17,-909.67,-118.16,14.82,-10.49,-3.60,-11.55,32.40,-10.65,35.22,119.97,
06/01/2021,01:09:17.68,-97.66,-913.09,-131.84,12.44,-11.59,-4.02,-12.15,30.75,-11.70,35.27,119.97,
06/01/2021,01:09:17.69,-107.42,-922.36,-133.30,17.26,-9.94,-3.78,-10.05,33.15,-12.15,35.22,119.97,
06/01/2021,01:09:17.69,-98.63,-921.88,-130.86,17.07,-9.51,-5.24,-10.05,33.15,-12.15,35.27,119.97,
06/01/2021,01:09:17.71,-100.59,-926.76,-159.67,15.18,-6.22,-5.37,-10.80,33.15,-9.30,35.22,119.97,
06/01/2021,01:09:17.74,-89.36,-944.82,-172.36,7.07,-8.48,-7.93,-12.45,33.30,-9.45,35.22,119.97,
06/01/2021,01:09:17.75,-90.33,-942.38,-182.13,6.71,-8.60,-8.78,-12.45,33.30,-9.45,35.07,119.97,
06/01/2021,01:09:17.76,-76.17,-934.57,-171.39,4.88,-9.63,-10.18,-11.55,30.45,-11.10,35.55,119.97,
06/01/2021,01:09:17.77,-75.68,-940.92,-177.73,5.37,-11.28,-8.96,-10.50,33.90,-11.85,35.55,119.97,
06/01/2021,01:09:17.78,-61.04,-958.50,-190.92,3.11,-13.66,-12.07,-9.60,32.25,-13.50,35.41,119.97,
06/01/2021,01:09:17.79,-61.52,-985.35,-174.80,1.04,-14.15,-10.85,-10.80,32.40,-10.35,35.36,119.97,
06/01/2021,01:09:17.79,-48.83,-982.42,-187.50,-0.12,-18.41,-11.83,-10.80,32.40,-10.35,35.79,119.97,
06/01/2021,01:09:17.80,-46.39,-1010.25,-167.48,-3.41,-20.43,-13.66,-8.40,33.00,-12.00,35.55,119.97,
06/01/2021,01:09:17.81,-41.99,-1002.93,-160.64,-4.70,-21.59,-16.40,-8.10,34.95,-12.30,35.60,119.97,
06/01/2021,01:09:17.82,-50.29,-1003.42,-156.25,-5.91,-28.84,-15.85,-8.10,34.95,-12.30,35.60,119.97,
06/01/2021,01:09:17.83,-62.50,-999.51,-142.58,-7.74,-27.13,-17.07,-9.90,33.00,-10.50,35.46,119.97,
06/01/2021,01:09:17.83,-70.80,-1010.25,-153.32,-8.05,-25.91,-17.93,-9.90,33.00,-10.50,35.75,119.97,
06/01/2021,01:09:17.84,-103.52,-1007.81,-146.48,-4.94,-24.51,-13.72,-9.90,33.00,-10.50,35.36,119.97,
06/01/2021,01:09:17.85,-118.65,-1004.39,-158.69,-6.83,-19.76,-18.66,-9.90,33.00,-10.50,35.70,119.97,
06/01/2021,01:09:17.86,-141.11,-1030.27,-178.71,-5.18,-16.46,-12.32,-8.40,33.00,-10.50,35.41,119.97,
