rtcDate,rtcTime,aX,aY,aZ,gX,gY,gZ,mX,mY,mZ,imu_degC,output_Hz,
06/01/2021,01:11:04.15,359.38,-955.08,-104.49,1.71,1.71,-0.12,-172.95,-39.30,-36.90,34.02,118.25,
06/01/2021,01:11:04.20,370.61,-954.59,-97.17,0.43,-0.43,0.49,-171.60,-38.85,-37.95,34.02,118.24,
06/01/2021,01:11:04.22,363.28,-962.89,-99.61,0.49,-2.20,0.61,-169.35,-39.60,-38.25,33.97,118.24,
06/01/2021,01:11:04.22,353.52,-955.08,-97.17,0.73,2.62,1.52,-169.35,-39.60,-38.25,34.21,118.24,
06/01/2021,01:11:04.23,372.56,-957.03,-92.29,0.12,2.07,0.67,-169.35,-39.60,-38.25,34.12,118.24,
06/01/2021,01:11:04.24,363.28,-964.84,-95.70,0.79,0.85,1.89,-171.90,-40.05,-39.45,34.21,118.24,
06/01/2021,01:11:04.25,363.28,-967.77,-99.61,1.65,-1.65,0.24,-171.90,-40.05,-39.45,33.88,118.24,
06/01/2021,01:11:04.26,367.19,-948.73,-91.31,2.87,0.73,0.49,-171.90,-40.05,-39.45,33.83,118.24,
06/01/2021,01:11:04.26,362.30,-950.68,-102.05,1.22,-2.26,-0.91,-171.15,-40.80,-41.10,34.21,118.24,
06/01/2021,01:11:04.27,366.21,-959.47,-96.19,2.56,2.38,1.04,-171.15,-40.80,-41.10,34.12,118.24,
06/01/2021,01:11:04.28,370.12,-958.50,-89.36,1.59,-0.79,0.00,-170.25,-38.25,-40.20,34.21,118.24,
06/01/2021,01:11:04.29,370.12,-969.73,-98.14,0.67,-0.30,-1.83,-170.25,-38.25,-40.20,34.02,118.24,
06/01/2021,01:11:04.29,361.33,-950.20,-101.07,-0.37,0.67,-0.49,-170.85,-39.30,-39.00,34.12,118.24,
06/01/2021,01:11:04.30,360.35,-962.89,-95.70,-0.24,-1.04,-1.22,-170.70,-38.70,-41.40,34.21,118.24,
06/01/2021,01:11:04.31,360.84,-951.17,-94.24,0.67,-0.43,0.55,-170.70,-38.70,-41.40,33.88,118.24,
06/01/2021,01:11:04.32,369.14,-946.29,-104.98,2.26,1.83,-2.01,-171.00,-40.20,-39.60,33.88,118.24,
06/01/2021,01:11:04.33,358.40,-960.45,-82.03,1.04,-2.62,2.44,-171.00,-40.20,-39.60,33.78,118.24,
06/01/2021,01:11:04.33,361.82,-964.84,-91.31,2.32,-0.24,1.28,-172.65,-38.55,-40.50,34.02,118.24,
06/01/2021,01:11:04.34,354.49,-952.64,-82.52,0.30,-1.89,1.46,-171.60,-38.10,-41.10,34.12,118.24,
06/01/2021,01:11:04.35,360.35,-957.52,-90.33,-1.89,-0.12,-1.40,-171.60,-38.10,-41.10,34.31,118.24,
06/01/2021,01:11:04.35,364.75,-957.52,-98.14,-0.55,0.24,1.46,-171.75,-38.25,-41.40,34.12,118.24,
06/01/2021,01:11:04.37,362.30,-960.45,-102.05,3.05,0.00,0.49,-169.20,-39.00,-42.45,34.12,118.24,
06/01/2021,01:11:04.37,356.45,-947.27,-86.43,0.43,-2.68,0.61,-173.25,-40.50,-40.20,34.02,118.24,
06/01/2021,01:11:04.38,367.68,-964.36,-104.49,0.37,-1.34,0.49,-173.25,-40.50,-40.20,34.02,118.24,
06/01/2021,01:11:04.38,357.91,-953.61,-99.12,2.07,-2.32,0.67,-173.25,-40.50,-40.20,34.16,118.24,
06/01/2021,01:11:04.39,367.19,-969.24,-104.98,1.77,-2.20,0.67,-170.40,-39.60,-40.05,33.88,118.24,
06/01/2021,01:11:04.41,363.77,-958.01,-107.42,1.22,0.06,0.43,-171.60,-38.55,-40.80,34.12,118.24,
06/01/2021,01:11:04.41,353.52,-965.33,-104.00,1.40,-3.48,0.37,-171.60,-38.55,-40.80,33.88,118.24,
06/01/2021,01:11:04.42,365.72,-963.87,-98.14,1.65,-2.01,1.16,-170.10,-39.30,-41.10,34.02,118.24,
06/01/2021,01:11:04.42,368.16,-957.52,-99.61,0.06,1.16,0.98,-170.10,-39.30,-41.10,33.97,118.24,
06/01/2021,01:11:04.43,354.49,-954.59,-91.80,1.04,-4.21,0.12,-171.30,-39.75,-41.40,34.02,118.24,
06/01/2021,01:11:04.45,376.95,-952.64,-88.87,2.74,-2.50,0.91,-171.30,-39.75,-41.40,34.02,118.24,
06/01/2021,01:11:04.45,358.89,-954.10,-93.26,0.43,0.73,-1.04,-172.95,-39.60,-39.45,34.02,118.24,
06/01/2021,01:11:04.46,364.75,-952.64,-95.21,-1.16,-2.07,-2.07,-169.80,-38.85,-40.80,34.12,118.24,
06/01/2021,01:11:04.46,367.19,-950.68,-104.98,1.22,-1.46,1.04,-169.80,-38.85,-40.80,33.97,118.24,
06/01/2021,01:11:04.47,346.19,-953.61,-90.82,1.10,-1.22,2.01,-169.80,-38.85,-40.80,34.12,118.24,
06/01/2021,01:11:04.49,356.93,-951.66,-86.43,0.55,-2.13,-1.16,-169.95,-38.70,-40.95,34.02,118.24,
06/01/2021,01:11:04.49,356.45,-959.47,-99.61,0.73,-1.22,-0.43,-172.80,-39.00,-38.55,34.02,118.24,
06/01/2021,01:11:04.50,369.63,-964.36,-98.63,1.04,-3.54,1.77,-169.20,-38.70,-38.55,34.02,118.24,
06/01/2021,01:11:04.50,360.35,-952.15,-86.43,0.79,-3.35,-1.10,-169.20,-38.70,-40.20,33.78,118.24,
06/01/2021,01:11:04.51,352.05,-954.10,-84.47,2.44,0.37,0.55,-169.35,-38.55,-39.75,34.02,118.24,
06/01/2021,01:11:04.51,355.47,-945.31,-102.54,0.55,-3.17,0.00,-169.35,-38.55,-39.75,34.12,118.24,
06/01/2021,01:11:04.53,355.47,-952.64,-99.61,1.59,0.43,1.77,-172.65,-38.55,-38.25,34.21,118.24,
06/01/2021,01:11:04.54,346.68,-953.12,-89.36,2.13,-3.48,-0.85,-172.65,-38.55,-38.25,34.16,118.24,
06/01/2021,01:11:04.54,364.75,-953.12,-94.24,1.40,0.73,0.73,-172.65,-38.55,-38.25,34.02,118.24,
06/01/2021,01:11:04.55,354.49,-964.84,-96.19,-2.38,-1.65,-0.37,-170.85,-39.30,-40.05,34.02,118.24,
06/01/2021,01:11:04.55,361.33,-954.10,-96.19,2.74,-0.18,-1.04,-170.85,-39.30,-40.05,34.12,118.24,
06/01/2021,01:11:04.57,367.68,-948.73,-88.87,1.83,-0.79,-1.22,-171.00,-40.50,-40.65,33.97,118.24,
06/01/2021,01:11:04.58,367.19,-958.50,-90.33,1.89,-0.91,0.61,-171.00,-40.50,-40.65,34.16,118.24,
06/01/2021,01:11:04.58,348.63,-947.27,-104.49,2.07,-1.04,0.85,-170.85,-40.35,-38.70,34.12,118.24,
06/01/2021,01:11:04.59,354.49,-954.10,-97.17,0.55,-1.95,1.10,-171.30,-38.25,-40.95,34.02,118.24,
06/01/2021,01:11:04.59,359.86,-958.50,-93.75,0.30,-2.32,0.67,-171.30,-38.25,-40.95,34.12,118.25,
06/01/2021,01:11:04.61,357.42,-952.64,-96.68,0.06,-1.65,0.49,-171.30,-38.70,-37.80,33.88,118.24,
06/01/2021,01:11:04.61,361.82,-958.01,-100.59,1.22,-0.43,2.74,-171.30,-38.70,-37.80,34.12,118.24,
06/01/2021,01:11:04.62,353.52,-950.20,-91.80,1.04,0.24,-0.73,-171.15,-38.85,-40.50,34.31,118.24,
06/01/2021,01:11:04.63,358.40,-965.82,-97.17,0.98,-2.74,-0.55,-171.15,-38.85,-40.50,33.88,118.25,
06/01/2021,01:11:04.63,355.96,-957.03,-92.29,0.85,-0.49,-2.50,-171.15,-38.85,-40.50,33.88,118.25,
06/01/2021,01:11:04.65,346.19,-961.43,-100.59,2.32,1.40,0.06,-172.80,-39.75,-39.90,34.02,118.24,
06/01/2021,01:11:04.65,359.38,-960.94,-95.21,1.59,-2.93,1.28,-172.80,-39.75,-39.90,33.78,118.24,
06/01/2021,01:11:04.69,359.86,-961.91,-103.52,0.37,-1.22,0.73,-172.05,-39.75,-39.60,34.12,118.24,
06/01/2021,01:11:04.70,369.63,-965.33,-97.17,-0.73,-2.20,1.46,-170.40,-38.85,-41.10,33.97,118.24,
06/01/2021,01:11:04.71,357.91,-959.47,-102.54,0.55,-1.04,-0.61,-172.65,-39.30,-40.80,33.88,118.24,
06/01/2021,01:11:04.72,353.03,-957.03,-105.47,0.61,-2.01,1.22,-172.65,-40.35,-41.55,34.02,118.24,
06/01/2021,01:11:04.73,349.12,-963.87,-95.70,1.28,0.18,-0.55,-172.65,-40.35,-41.55,34.12,118.24,
06/01/2021,01:11:04.74,356.45,-953.61,-97.17,0.18,0.67,1.16,-171.15,-38.10,-42.15,34.02,118.24,
06/01/2021,01:11:04.74,359.38,-961.91,-96.19,0.24,-2.38,2.01,-171.15,-38.10,-42.15,34.12,118.24,
06/01/2021,01:11:04.75,356.93,-947.27,-97.17,1.59,-0.06,1.71,-170.40,-38.55,-39.45,33.97,118.24,
06/01/2021,01:11:04.75,364.75,-962.89,-92.77,0.37,-1.04,-0.73,-170.40,-38.55,-39.45,34.16,118.24,
06/01/2021,01:11:04.77,369.63,-955.08,-98.14,-0.73,-2.13,-2.26,-172.05,-39.45,-39.60,33.97,118.24,
06/01/2021,01:11:04.78,352.54,-943.85,-83.98,-0.18,-0.67,-1.59,-172.05,-39.45,-39.60,34.02,118.24,
06/01/2021,01:11:04.78,372.56,-962.89,-94.24,1.40,-1.16,3.60,-171.90,-39.60,-39.75,33.88,118.24,
06/01/2021,01:11:04.79,363.28,-954.59,-104.00,0.49,-2.07,1.10,-171.90,-39.60,-39.75,33.64,118.24,
06/01/2021,01:11:04.79,358.89,-943.85,-94.24,-0.06,-3.66,-1.22,-171.90,-39.60,-39.75,33.78,118.24,
06/01/2021,01:11:04.81,362.79,-966.80,-88.87,0.00,-2.07,0.37,-171.90,-40.35,-38.25,34.12,118.24,
06/01/2021,01:11:04.81,362.30,-953.61,-92.29,0.73,-3.90,-0.24,-171.90,-40.35,-38.25,34.02,118.24,
06/01/2021,01:11:04.82,356.45,-951.66,-102.54,0.30,1.65,-1.40,-170.40,-38.10,-41.10,34.16,118.24,
06/01/2021,01:11:04.83,352.05,-957.52,-94.73,-0.55,-3.35,1.28,-170.25,-37.50,-40.65,34.21,118.24,
06/01/2021,01:11:04.83,370.61,-957.03,-98.63,-0.98,0.12,-0.30,-170.25,-37.50,-40.65,33.88,118.24,
06/01/2021,01:11:04.85,353.52,-955.08,-103.03,-0.61,-1.89,0.67,-172.65,-39.30,-39.45,33.88,118.24,
06/01/2021,01:11:04.85,358.89,-955.08,-103.03,-0.43,-0.24,-0.61,-172.65,-39.30,-39.45,34.02,118.24,
06/01/2021,01:11:04.86,356.93,-945.31,-97.17,0.73,0.18,-1.28,-170.10,-38.10,-41.10,33.88,118.24,
06/01/2021,01:11:04.87,366.21,-958.98,-90.82,-0.67,-2.87,-0.55,-170.10,-38.85,-39.75,33.83,118.24,
06/01/2021,01:11:04.87,359.38,-955.08,-98.63,-0.67,-1.77,-0.61,-170.10,-38.85,-39.75,34.02,118.24,
06/01/2021,01:11:04.89,359.38,-955.08,-95.70,1.34,-2.20,-0.79,-171.75,-38.70,-40.20,34.12,118.24,
06/01/2021,01:11:04.89,346.68,-966.80,-87.89,-0.49,-0.43,0.73,-171.75,-38.70,-40.20,34.02,118.24,
06/01/2021,01:11:04.90,358.40,-955.08,-94.24,1.83,0.79,-0.55,-170.10,-40.35,-40.05,34.02,118.24,
06/01/2021,01:11:04.90,362.79,-950.68,-88.38,-2.56,-1.52,-2.93,-170.40,-39.30,-41.55,34.21,118.24,
06/01/2021,01:11:04.91,361.33,-959.47,-93.75,2.62,-1.59,-2.26,-170.40,-39.30,-41.55,34.02,118.24,
06/01/2021,01:11:04.93,350.59,-950.68,-89.84,0.67,-1.34,-0.30,-172.05,-37.95,-39.15,34.02,118.24,
06/01/2021,01:11:04.93,355.96,-954.10,-105.47,0.43,-1.77,-2.62,-172.05,-37.95,-39.15,33.97,118.24,
06/01/2021,01:11:04.94,349.61,-958.98,-80.57,1.59,-0.67,-1.04,-171.15,-38.55,-40.50,34.21,118.24,
06/01/2021,01:11:04.94,353.52,-963.87,-88.87,1.59,-1.59,1.40,-171.15,-38.55,-40.50,34.12,118.24,
06/01/2021,01:11:04.95,359.38,-967.29,-92.77,-0.06,-1.04,-0.49,-171.15,-38.55,-40.50,34.12,118.24,
06/01/2021,01:11:04.97,354.49,-948.24,-94.24,2.07,-0.73,-0.55,-171.75,-39.75,-39.15,33.88,118.24,
06/01/2021,01:11:04.97,358.40,-961.43,-94.73,0.55,-2.32,0.98,-171.75,-39.75,-39.15,34.21,118.24,
06/01/2021,01:11:04.98,348.63,-956.54,-91.80,1.34,-1.34,0.30,-171.75,-39.75,-39.15,33.97,118.24,
06/01/2021,01:11:04.98,337.89,-949.22,-90.33,1.10,0.12,0.98,-171.75,-39.75,-39.15,33.88,118.24,
06/01/2021,01:11:04.99,352.54,-955.08,-97.17,0.00,-1.04,1.52,-169.50,-38.70,-40.95,33.83,118.24,
06/01/2021,01:11:05.00,354.49,-957.52,-93.75,-1.10,0.12,-3.29,-172.05,-39.45,-41.40,34.12,118.24,
06/01/2021,01:11:05.01,347.17,-944.82,-97.66,1.04,-0.85,0.18,-170.10,-38.85,-41.10,33.68,118.24,
06/01/2021,01:11:05.02,354.98,-952.15,-103.03,1.59,-1.95,0.06,-172.05,-39.45,-38.10,34.12,118.24,
06/01/2021,01:11:05.02,363.77,-950.20,-85.45,1.46,-0.67,0.06,-172.05,-39.45,-38.10,34.02,118.24,
06/01/2021,01:11:05.03,341.31,-959.47,-103.52,2.68,-2.32,1.46,-170.40,-38.10,-39.75,34.02,118.25,
06/01/2021,01:11:05.03,340.33,-942.38,-92.29,1.28,2.13,-1.40,-171.30,-38.25,-41.40,34.21,118.25,
06/01/2021,01:11:05.05,351.07,-962.40,-98.63,0.91,0.24,-1.52,-171.30,-38.25,-41.40,33.97,118.24,
06/01/2021,01:11:05.06,350.10,-962.40,-103.03,2.01,0.85,1.71,-173.70,-38.85,-38.70,34.02,118.24,
06/01/2021,01:11:05.06,341.80,-961.91,-101.56,1.89,-1.83,0.55,-173.70,-38.85,-38.70,34.02,118.25,
06/01/2021,01:11:05.07,349.12,-939.45,-87.89,2.93,0.12,-0.67,-169.20,-39.75,-39.90,34.02,118.25,
06/01/2021,01:11:05.07,353.03,-958.01,-87.89,1.04,-1.16,0.43,-169.20,-39.75,-39.90,33.88,118.25,
06/01/2021,01:11:05.09,355.96,-955.08,-90.33,2.74,-1.83,-1.95,-171.30,-39.00,-41.40,34.12,118.24,
06/01/2021,01:11:05.10,357.91,-952.64,-96.19,2.13,-3.96,0.49,-173.55,-41.25,-38.85,33.88,118.25,
06/01/2021,01:11:05.10,346.19,-943.36,-88.87,2.07,-2.44,-2.50,-173.55,-41.25,-38.85,33.68,118.25,
06/01/2021,01:11:05.11,359.38,-967.29,-95.21,1.89,-0.98,-0.55,-173.55,-41.25,-38.85,34.02,118.25,
06/01/2021,01:11:05.11,363.28,-942.38,-103.03,3.11,1.40,-0.43,-171.30,-38.25,-41.70,34.02,118.25,
06/01/2021,01:11:05.13,349.12,-955.08,-100.59,1.71,-3.23,-0.43,-171.00,-40.20,-39.90,33.83,118.25,
06/01/2021,01:11:05.13,356.45,-955.57,-100.59,1.59,-0.61,-0.61,-171.00,-40.20,-39.90,34.12,118.25,
06/01/2021,01:11:05.14,367.68,-958.01,-102.05,2.07,0.43,-0.24,-171.00,-40.20,-39.90,33.88,118.25,
06/01/2021,01:11:05.15,349.61,-954.59,-103.52,1.59,0.00,2.62,-170.85,-38.10,-39.75,34.12,118.25,
06/01/2021,01:11:05.15,353.52,-969.24,-95.70,0.00,-2.38,0.12,-171.15,-40.35,-41.85,33.97,118.25,
06/01/2021,01:11:05.20,337.89,-973.63,-105.96,2.01,-0.91,-0.18,-172.80,-39.75,-39.90,33.88,118.24,
06/01/2021,01:11:05.21,352.05,-951.66,-113.28,-0.06,-3.35,-3.17,-172.65,-39.60,-40.05,34.16,118.24,
06/01/2021,01:11:05.22,352.54,-951.17,-94.73,0.30,-2.99,-2.01,-172.20,-39.60,-39.45,34.21,118.24,
06/01/2021,01:11:05.22,367.19,-961.91,-91.31,2.32,-1.40,-1.16,-172.20,-39.60,-39.45,34.12,118.24,
06/01/2021,01:11:05.23,361.82,-956.54,-91.80,0.30,-2.50,-0.06,-171.75,-39.75,-40.95,33.83,118.24,
06/01/2021,01:11:05.24,353.03,-966.31,-83.50,2.26,-0.85,-2.93,-172.65,-40.05,-39.00,33.97,118.24,
06/01/2021,01:11:05.25,359.86,-957.03,-96.68,0.49,-1.46,1.04,-172.65,-40.05,-39.00,33.97,118.24,
06/01/2021,01:11:05.26,356.93,-956.05,-93.75,2.26,0.37,0.55,-169.20,-37.95,-41.40,34.12,118.24,
06/01/2021,01:11:05.26,357.42,-955.08,-100.59,0.98,-0.73,2.38,-169.20,-37.95,-41.40,34.31,118.24,
06/01/2021,01:11:05.27,354.98,-955.57,-108.89,3.54,-0.49,0.06,-169.20,-37.95,-41.40,34.02,118.24,
06/01/2021,01:11:05.27,349.61,-943.85,-98.63,0.06,0.49,-0.43,-170.10,-38.85,-41.10,34.02,118.24,
06/01/2021,01:11:05.29,357.91,-950.20,-95.70,0.79,1.16,-0.37,-171.00,-38.70,-39.60,34.21,118.24,
06/01/2021,01:11:05.30,345.70,-942.87,-88.87,2.80,1.52,-0.55,-171.00,-38.70,-39.60,33.88,118.24,
06/01/2021,01:11:05.30,344.73,-959.96,-96.19,1.04,0.30,1.10,-171.00,-38.70,-39.60,33.97,118.24,
06/01/2021,01:11:05.31,364.26,-958.01,-93.26,0.98,2.44,0.24,-169.35,-39.30,-39.75,34.12,118.24,
06/01/2021,01:11:05.31,348.63,-951.17,-102.05,3.23,-2.38,2.26,-171.15,-38.55,-41.55,34.02,118.24,
06/01/2021,01:11:05.33,358.89,-950.20,-92.29,-0.30,-1.34,1.10,-171.75,-38.25,-39.60,34.12,118.24,
06/01/2021,01:11:05.33,361.33,-961.43,-98.63,1.34,0.73,2.01,-172.05,-39.45,-37.80,33.97,118.24,
06/01/2021,01:11:05.34,360.84,-954.10,-97.17,2.62,-3.90,-1.22,-172.05,-39.45,-37.80,33.68,118.24,
06/01/2021,01:11:05.35,356.93,-967.77,-91.31,0.49,-1.22,1.83,-170.70,-38.25,-41.40,33.88,118.24,
06/01/2021,01:11:05.35,369.63,-959.96,-98.14,0.67,-0.67,1.16,-170.85,-38.55,-41.55,33.83,118.24,
06/01/2021,01:11:05.37,351.07,-962.40,-88.38,1.16,-1.04,-1.71,-172.50,-39.75,-40.65,34.02,118.24,
06/01/2021,01:11:05.37,349.61,-956.05,-93.75,3.35,-1.52,1.34,-172.95,-39.60,-39.00,34.02,118.24,
06/01/2021,01:11:05.38,356.93,-958.50,-86.91,1.77,-1.71,-1.95,-172.95,-39.60,-39.00,33.83,118.24,
06/01/2021,01:11:05.39,376.95,-958.50,-94.73,-0.24,-0.30,-2.32,-169.80,-39.30,-40.80,33.97,118.24,
06/01/2021,01:11:05.39,364.26,-956.05,-88.87,2.20,-0.43,-1.10,-169.80,-39.30,-40.80,34.02,118.24,
06/01/2021,01:11:05.41,364.75,-968.26,-103.03,1.83,-1.16,-2.99,-171.30,-40.20,-38.85,33.88,118.24,
06/01/2021,01:11:05.41,359.86,-962.40,-96.19,1.34,1.16,-1.40,-172.05,-39.75,-39.15,33.83,118.24,
06/01/2021,01:11:05.42,347.66,-967.77,-97.66,-0.06,0.79,-3.17,-172.05,-39.75,-39.15,34.02,118.24,
06/01/2021,01:11:05.42,363.28,-959.96,-99.61,1.89,-1.46,-1.04,-172.05,-39.75,-39.15,34.12,118.24,
06/01/2021,01:11:05.43,365.23,-951.17,-98.14,0.67,-0.12,-0.61,-172.05,-39.75,-39.15,34.16,118.25,
06/01/2021,01:11:05.45,355.47,-958.98,-94.24,0.67,0.61,-2.87,-172.65,-40.35,-39.45,33.97,118.24,
06/01/2021,01:11:05.45,348.14,-958.98,-93.75,1.89,0.91,-3.35,-172.65,-40.35,-39.45,33.88,118.24,
06/01/2021,01:11:05.46,369.14,-953.61,-97.17,0.55,0.73,-2.80,-172.65,-40.35,-39.45,34.12,118.24,
06/01/2021,01:11:05.46,357.42,-958.98,-99.61,2.44,-3.41,-1.83,-170.40,-37.80,-39.45,34.02,118.25,
06/01/2021,01:11:05.47,372.56,-962.40,-101.56,2.01,-1.22,-2.32,-170.40,-37.80,-39.45,34.02,118.25,
06/01/2021,01:11:05.48,355.47,-955.57,-97.17,-0.24,0.30,-1.28,-171.15,-38.85,-39.75,33.83,118.25,
06/01/2021,01:11:05.49,368.65,-951.17,-102.05,2.38,-2.68,-1.16,-171.75,-41.25,-39.60,34.12,118.25,
06/01/2021,01:11:05.50,346.68,-978.03,-103.52,0.55,-1.28,-2.26,-171.75,-41.25,-39.60,34.02,118.25,
06/01/2021,01:11:05.50,349.12,-955.08,-110.84,2.32,-0.30,-2.13,-170.70,-39.00,-41.40,34.02,118.25,
06/01/2021,01:11:05.51,350.10,-951.17,-107.91,1.52,-0.61,0.37,-170.70,-39.00,-41.40,34.36,118.25,
06/01/2021,01:11:05.51,351.56,-953.12,-104.98,2.99,0.30,-0.37,-170.70,-39.00,-40.20,34.02,118.25,
06/01/2021,01:11:05.53,346.68,-964.84,-106.93,1.40,-0.79,1.34,-172.20,-39.30,-39.75,34.02,118.25,
06/01/2021,01:11:05.54,363.28,-944.82,-103.03,0.24,-2.01,-2.38,-172.20,-39.30,-39.75,34.21,118.25,
06/01/2021,01:11:05.54,360.35,-956.05,-102.54,1.04,-2.44,-0.73,-170.85,-38.55,-40.50,33.83,118.25,
06/01/2021,01:11:05.55,370.12,-963.87,-107.42,1.28,-3.35,1.95,-170.85,-38.55,-40.50,34.12,118.25,
06/01/2021,01:11:05.55,363.28,-957.52,-92.29,2.74,-2.56,0.49,-170.25,-37.50,-40.95,33.78,118.25,
06/01/2021,01:11:05.57,358.40,-977.05,-97.17,2.56,-1.34,-2.62,-171.15,-38.85,-39.75,33.97,118.25,
06/01/2021,01:11:05.58,344.73,-969.24,-94.24,1.52,-2.80,-1.71,-171.15,-40.35,-39.45,34.31,118.25,
06/01/2021,01:11:05.58,378.91,-956.05,-93.75,1.34,-1.22,-3.66,-171.15,-40.35,-39.45,34.21,118.25,
06/01/2021,01:11:05.59,366.70,-971.68,-100.10,1.10,-3.48,-0.55,-171.15,-40.35,-39.45,34.02,118.25,
06/01/2021,01:11:05.59,369.14,-960.45,-103.03,0.85,-3.78,0.06,-171.90,-38.10,-41.10,34.21,118.25,
06/01/2021,01:11:05.61,354.98,-966.80,-94.73,1.46,-1.34,-1.04,-171.60,-39.30,-41.85,33.88,118.25,
06/01/2021,01:11:05.61,365.72,-959.47,-87.40,1.34,-0.98,0.73,-171.60,-39.30,-41.85,34.02,118.25,
06/01/2021,01:11:05.62,360.84,-948.73,-95.70,0.49,-0.67,2.20,-171.75,-38.70,-40.65,33.97,118.25,
06/01/2021,01:11:05.63,343.75,-951.66,-95.70,-1.10,-1.95,-2.44,-171.75,-38.70,-40.65,34.12,118.25,
06/01/2021,01:11:05.63,353.03,-948.73,-100.10,1.65,-2.93,-5.55,-171.30,-38.70,-40.95,33.78,118.25,
06/01/2021,01:11:05.65,341.80,-957.52,-100.10,0.24,-0.61,-2.20,-171.30,-38.70,-40.95,34.21,118.25,
06/01/2021,01:11:05.65,357.42,-955.57,-107.91,0.00,-0.73,-1.89,-171.15,-40.35,-39.00,34.02,118.25,
06/01/2021,01:11:05.66,362.30,-955.57,-97.66,2.38,-1.10,0.91,-171.75,-39.45,-40.20,34.21,118.25,
06/01/2021,01:11:05.67,362.30,-956.54,-87.89,1.89,-2.20,-1.95,-171.75,-39.45,-40.20,34.12,118.25,
06/01/2021,01:11:05.67,361.33,-966.31,-98.63,0.49,0.67,0.00,-170.10,-38.85,-39.75,33.88,118.25,
06/01/2021,01:11:05.72,359.38,-969.73,-101.07,2.62,-1.34,0.24,-171.75,-39.00,-38.85,34.02,118.24,
06/01/2021,01:11:05.73,355.47,-959.96,-91.31,0.55,-1.16,0.91,-171.90,-38.55,-39.00,34.02,118.24,
06/01/2021,01:11:05.74,365.72,-959.96,-99.61,2.32,-2.20,-0.49,-171.90,-38.55,-39.00,34.02,118.24,
06/01/2021,01:11:05.74,359.86,-962.89,-91.31,0.67,-1.46,2.13,-171.90,-38.55,-39.00,34.02,118.24,
06/01/2021,01:11:05.75,348.14,-966.80,-88.87,1.28,-1.04,-0.73,-171.90,-38.55,-39.00,33.97,118.24,
06/01/2021,01:11:05.75,356.93,-959.96,-92.29,2.44,-0.91,-0.24,-170.70,-38.70,-41.40,34.02,118.24,
06/01/2021,01:11:05.77,360.35,-960.45,-98.63,0.00,-1.46,-1.40,-170.70,-39.00,-42.45,33.78,118.24,
06/01/2021,01:11:05.77,349.12,-965.33,-90.82,0.98,-0.98,-0.43,-170.70,-39.00,-42.45,33.88,118.24,
06/01/2021,01:11:05.78,356.45,-960.45,-101.07,0.37,-3.41,-0.43,-170.70,-39.00,-42.00,34.16,118.24,
06/01/2021,01:11:05.79,358.40,-955.57,-106.45,1.65,-2.93,2.50,-170.70,-39.00,-42.00,34.12,118.24,
06/01/2021,01:11:05.79,348.14,-943.85,-105.47,0.43,-0.85,1.65,-171.75,-39.00,-41.70,34.12,118.24,
06/01/2021,01:11:05.81,359.86,-953.61,-104.00,2.56,-2.32,-3.17,-171.75,-39.00,-41.70,34.02,118.24,
06/01/2021,01:11:05.81,359.38,-953.12,-96.19,2.38,-2.13,1.22,-172.20,-40.35,-38.70,33.83,118.24,
06/01/2021,01:11:05.82,367.19,-951.17,-95.21,0.73,-1.65,-1.16,-170.40,-38.85,-41.85,34.16,118.24,
06/01/2021,01:11:05.83,355.96,-959.47,-99.61,-1.52,-2.56,1.83,-170.40,-38.85,-41.85,33.88,118.24,
06/01/2021,01:11:05.83,352.05,-955.57,-96.19,0.98,-4.51,1.83,-170.40,-38.85,-41.85,33.97,118.25,
06/01/2021,01:11:05.85,349.12,-966.80,-100.10,-0.55,-0.24,-2.07,-171.15,-39.30,-40.05,34.12,118.24,
06/01/2021,01:11:05.85,359.38,-956.05,-82.03,2.20,-0.73,2.80,-171.75,-39.45,-38.10,33.88,118.24,
06/01/2021,01:11:05.86,350.10,-946.29,-89.84,0.37,-2.20,1.71,-169.05,-38.85,-41.55,33.88,118.24,
06/01/2021,01:11:05.87,363.28,-954.10,-89.84,-2.20,-1.52,0.67,-169.05,-38.85,-41.55,33.88,118.25,
06/01/2021,01:11:05.87,355.96,-965.82,-92.29,-0.37,-2.01,-1.52,-171.15,-39.30,-40.50,34.12,118.25,
06/01/2021,01:11:05.89,365.72,-956.54,-95.70,-1.28,-0.43,0.18,-170.10,-37.80,-40.50,33.97,118.24,
06/01/2021,01:11:05.89,343.75,-945.31,-92.29,0.30,-0.06,1.16,-171.75,-40.20,-38.55,33.83,118.25,
06/01/2021,01:11:05.90,363.77,-972.17,-104.00,0.67,-3.54,1.34,-169.35,-37.80,-39.00,33.88,118.25,
06/01/2021,01:11:05.90,358.40,-958.98,-104.00,-1.10,-3.17,3.48,-169.35,-37.80,-39.00,34.02,118.25,
06/01/2021,01:11:05.91,356.45,-967.77,-88.87,-1.34,-1.16,2.26,-170.40,-38.55,-41.10,34.02,118.25,
06/01/2021,01:11:05.93,356.93,-961.43,-102.54,-0.43,-4.27,1.10,-169.95,-39.00,-40.20,33.83,118.25,
06/01/2021,01:11:05.93,370.61,-955.08,-102.05,-1.04,-0.18,-0.43,-169.95,-39.00,-40.20,33.97,118.25,
06/01/2021,01:11:05.94,364.26,-956.54,-89.84,-0.24,-2.44,0.30,-171.30,-39.45,-42.45,34.02,118.25,
06/01/2021,01:11:05.94,372.56,-965.82,-95.70,1.59,-1.65,-0.67,-171.30,-39.45,-42.45,34.21,118.25,
06/01/2021,01:11:05.95,361.33,-958.50,-94.24,-1.04,-1.28,-1.59,-170.10,-38.55,-40.50,34.12,118.25,
06/01/2021,01:11:05.97,353.52,-957.03,-91.31,-0.06,-1.46,1.65,-170.10,-38.55,-40.50,33.97,118.25,
06/01/2021,01:11:05.97,358.40,-960.94,-98.14,0.18,0.49,1.59,-172.95,-41.85,-37.65,33.97,118.25,
06/01/2021,01:11:05.98,361.82,-956.05,-112.30,-0.55,-1.34,-1.83,-170.40,-38.55,-39.75,34.16,118.25,
06/01/2021,01:11:05.98,364.26,-948.73,-106.93,-0.85,-1.22,2.32,-170.40,-38.55,-39.75,33.88,118.25,
06/01/2021,01:11:05.99,365.72,-960.45,-94.73,-0.61,-2.99,-0.98,-170.40,-38.55,-39.75,34.16,118.25,
06/01/2021,01:11:06.00,358.40,-966.80,-103.52,-0.73,1.59,-1.52,-170.40,-38.55,-39.75,34.02,118.25,
06/01/2021,01:11:06.01,354.98,-964.84,-98.63,-0.85,-2.13,-1.28,-170.70,-39.75,-39.60,34.02,118.25,
06/01/2021,01:11:06.02,355.96,-949.71,-103.03,1.04,-3.96,3.05,-172.20,-39.60,-39.45,34.02,118.25,
06/01/2021,01:11:06.02,350.59,-951.66,-101.07,0.91,-2.44,0.30,-172.20,-39.60,-39.45,33.78,118.25,
06/01/2021,01:11:06.03,359.38,-952.64,-104.00,-1.16,-0.98,-1.34,-171.00,-39.75,-40.95,33.83,118.25,
06/01/2021,01:11:06.04,363.77,-950.68,-100.10,-0.12,-1.22,-1.10,-171.00,-39.75,-40.95,33.97,118.25,
06/01/2021,01:11:06.05,360.35,-962.40,-97.17,0.30,-0.98,0.43,-172.65,-38.55,-39.75,33.97,118.25,
06/01/2021,01:11:06.06,347.66,-960.45,-101.07,2.74,-1.95,3.41,-172.65,-38.85,-39.75,33.97,118.25,
06/01/2021,01:11:06.06,357.91,-956.05,-100.10,-0.06,0.37,-1.10,-172.65,-38.85,-39.75,34.16,118.25,
06/01/2021,01:11:06.07,368.16,-965.33,-109.38,0.91,-1.52,0.98,-172.05,-39.45,-41.40,33.88,118.25,
06/01/2021,01:11:06.08,367.68,-946.78,-107.42,0.24,-2.13,0.91,-172.05,-39.45,-41.40,34.21,118.25,
06/01/2021,01:11:06.09,358.40,-953.12,-101.56,0.67,-3.29,0.00,-170.40,-38.10,-40.05,34.02,118.25,
06/01/2021,01:11:06.10,363.77,-950.20,-98.63,2.01,-3.23,1.04,-172.80,-39.75,-39.90,34.02,118.25,
06/01/2021,01:11:06.10,351.56,-959.96,-106.93,-0.67,-4.33,-3.96,-172.80,-39.75,-39.90,34.02,118.25,
06/01/2021,01:11:06.11,351.56,-971.68,-100.10,0.18,-3.41,1.10,-171.30,-37.95,-41.40,34.02,118.25,
06/01/2021,01:11:06.11,344.24,-968.26,-108.40,0.61,-3.48,0.98,-171.30,-37.95,-41.40,33.97,118.25,
06/01/2021,01:11:06.13,358.89,-983.89,-110.84,-0.43,-2.32,-2.32,-170.85,-40.05,-39.45,33.97,118.25,
06/01/2021,01:11:06.14,360.35,-959.96,-101.07,-0.30,-2.50,1.65,-170.85,-40.05,-39.45,33.88,118.25,
06/01/2021,01:11:06.14,366.70,-967.29,-96.19,-2.32,-3.84,-1.52,-171.30,-37.95,-40.20,33.97,118.25,
06/01/2021,01:11:06.15,358.89,-959.96,-106.45,0.91,0.67,-1.77,-171.30,-37.95,-40.20,34.16,118.25,
06/01/2021,01:11:06.15,352.54,-952.64,-98.63,2.20,-3.54,0.12,-171.30,-37.95,-40.20,34.12,118.25,
06/01/2021,01:11:06.17,355.47,-958.01,-104.00,0.73,0.49,-0.24,-172.50,-37.95,-40.65,34.02,118.25,
06/01/2021,01:11:06.17,350.59,-958.98,-116.21,-1.10,0.79,-2.50,-172.50,-37.95,-40.65,34.12,118.25,
06/01/2021,01:11:06.18,349.61,-961.91,-95.21,-0.67,-3.60,0.43,-172.50,-37.95,-40.65,33.88,118.25,
06/01/2021,01:11:06.19,351.56,-946.78,-105.96,-0.79,2.20,-0.30,-171.60,-38.85,-41.10,34.21,118.25,
06/01/2021,01:11:06.19,360.84,-945.80,-119.63,-0.85,-3.35,-0.61,-171.60,-38.85,-41.10,33.97,118.25,
06/01/2021,01:11:06.24,359.38,-953.61,-105.47,1.83,-0.24,1.16,-171.90,-39.60,-40.50,34.02,118.24,
06/01/2021,01:11:06.25,352.54,-959.47,-100.10,-1.16,-0.37,-0.79,-171.90,-39.60,-40.50,33.88,118.24,
06/01/2021,01:11:06.26,351.07,-956.05,-108.89,-1.40,-2.44,0.61,-172.05,-39.75,-39.90,34.21,118.24,
06/01/2021,01:11:06.26,358.89,-948.73,-101.07,0.43,-1.89,2.56,-172.05,-39.75,-39.90,34.02,118.24,
06/01/2021,01:11:06.27,359.86,-952.64,-100.59,-1.10,-0.49,-0.18,-170.25,-36.75,-40.95,34.12,118.25,
06/01/2021,01:11:06.28,354.49,-956.54,-107.42,-0.18,-4.09,-1.16,-170.25,-36.75,-40.95,34.16,118.24,
06/01/2021,01:11:06.29,357.42,-946.78,-113.77,1.40,-3.41,1.34,-173.55,-41.70,-37.80,33.97,118.24,
06/01/2021,01:11:06.30,347.66,-954.10,-102.05,-0.79,-4.39,-0.91,-169.05,-37.80,-42.90,34.12,118.24,
06/01/2021,01:11:06.30,349.12,-955.57,-103.03,0.18,-3.29,2.93,-169.05,-37.80,-42.90,34.16,118.25,
06/01/2021,01:11:06.31,363.28,-957.52,-112.79,0.91,-1.10,0.37,-169.05,-37.80,-42.90,34.21,118.25,
06/01/2021,01:11:06.31,350.59,-940.43,-92.77,-0.43,-0.55,0.12,-169.05,-37.80,-42.90,34.02,118.25,
06/01/2021,01:11:06.33,350.59,-946.78,-98.63,-0.85,-3.54,-0.12,-172.05,-40.50,-40.20,33.78,118.24,
06/01/2021,01:11:06.34,356.45,-949.22,-104.49,-0.61,-1.65,0.00,-172.05,-40.50,-40.20,33.64,118.25,
06/01/2021,01:11:06.34,363.77,-951.17,-102.54,-2.50,-2.68,-0.43,-172.05,-40.50,-40.20,34.02,118.25,
06/01/2021,01:11:06.35,348.14,-942.38,-110.84,-0.30,-0.98,-0.91,-172.05,-39.00,-40.65,34.02,118.25,
06/01/2021,01:11:06.35,366.21,-948.24,-108.89,1.71,-2.50,-0.73,-172.05,-39.00,-40.65,34.02,118.25,
06/01/2021,01:11:06.37,353.03,-943.85,-103.03,-0.98,-0.30,0.98,-170.85,-40.05,-39.45,33.83,118.25,
06/01/2021,01:11:06.37,360.35,-953.61,-106.93,0.37,-0.37,0.61,-170.85,-40.05,-39.45,34.12,118.25,
06/01/2021,01:11:06.38,360.35,-955.57,-114.75,-0.67,1.28,0.61,-170.85,-38.85,-39.75,34.02,118.25,
06/01/2021,01:11:06.39,358.89,-946.78,-89.36,-1.04,-0.24,0.55,-171.75,-39.75,-40.65,33.88,118.25,
06/01/2021,01:11:06.39,362.79,-955.08,-103.52,0.55,-0.18,2.01,-171.75,-39.75,-40.65,34.12,118.25,
06/01/2021,01:11:06.41,353.52,-960.45,-90.82,-0.73,-2.13,-0.18,-171.00,-40.95,-38.85,33.88,118.25,
06/01/2021,01:11:06.41,359.38,-948.24,-98.63,-0.30,-3.11,0.00,-171.00,-40.95,-38.85,34.21,118.25,
06/01/2021,01:11:06.42,346.19,-954.10,-100.10,2.07,-2.07,1.16,-171.90,-37.05,-39.75,34.02,118.25,
06/01/2021,01:11:06.43,358.89,-956.54,-101.07,1.16,-2.44,1.10,-171.30,-39.00,-41.70,34.02,118.25,
06/01/2021,01:11:06.43,352.05,-958.98,-95.70,1.28,-2.20,0.79,-171.30,-39.00,-41.70,34.31,118.25,
06/01/2021,01:11:06.45,362.79,-946.78,-98.63,-1.40,-0.49,2.62,-172.65,-41.10,-39.45,34.02,118.25,
06/01/2021,01:11:06.45,350.59,-945.31,-99.61,-0.18,-0.73,-2.44,-172.65,-41.10,-39.45,33.88,118.25,
06/01/2021,01:11:06.46,361.82,-944.82,-98.14,1.16,-0.24,0.49,-171.30,-39.75,-40.95,33.88,118.25,
06/01/2021,01:11:06.47,370.12,-949.71,-103.03,0.18,-1.46,-0.37,-171.30,-39.75,-40.95,34.12,118.25,
06/01/2021,01:11:06.47,360.35,-947.27,-97.17,0.30,0.67,0.91,-171.30,-39.75,-40.95,34.02,118.25,
06/01/2021,01:11:06.49,367.19,-966.31,-95.70,1.34,-1.40,0.24,-172.50,-38.70,-40.20,34.12,118.25,
06/01/2021,01:11:06.49,363.77,-961.43,-106.45,1.40,-1.34,-0.18,-172.50,-38.70,-40.20,34.02,118.25,
06/01/2021,01:11:06.50,354.49,-953.12,-109.86,2.68,0.24,-0.73,-172.50,-38.70,-40.20,33.64,118.25,
06/01/2021,01:11:06.50,371.09,-952.15,-100.10,0.79,-2.44,2.99,-170.40,-38.85,-41.10,33.97,118.25,
06/01/2021,01:11:06.51,350.10,-948.73,-100.10,1.46,0.49,-0.24,-170.40,-38.85,-41.10,33.78,118.25,
06/01/2021,01:11:06.53,362.79,-949.71,-99.12,1.59,0.43,-0.98,-171.00,-38.25,-41.70,33.97,118.25,
06/01/2021,01:11:06.53,364.26,-950.68,-100.10,2.68,-0.18,0.06,-171.00,-38.25,-41.70,33.68,118.25,
06/01/2021,01:11:06.54,343.75,-956.05,-108.89,3.35,0.49,-0.06,-170.25,-38.25,-40.95,34.16,118.25,
06/01/2021,01:11:06.54,354.49,-962.89,-114.26,0.85,1.16,-0.06,-171.30,-38.70,-40.95,33.88,118.25,
06/01/2021,01:11:06.55,366.21,-967.29,-103.03,1.16,0.55,-0.61,-171.30,-38.70,-40.95,34.02,118.25,
06/01/2021,01:11:06.56,360.35,-957.52,-106.45,1.22,0.24,3.17,-170.40,-39.30,-40.50,34.02,118.25,
06/01/2021,01:11:06.57,354.49,-961.43,-107.91,1.59,1.83,-0.85,-170.25,-39.00,-41.40,34.02,118.25,
06/01/2021,01:11:06.58,353.52,-945.80,-103.52,1.95,-1.22,-1.77,-172.65,-42.60,-39.00,34.12,118.25,
06/01/2021,01:11:06.58,373.54,-958.50,-110.84,1.77,1.40,-0.61,-170.70,-38.25,-40.95,34.21,118.25,
06/01/2021,01:11:06.59,345.70,-943.36,-101.07,-0.24,-0.91,0.61,-170.70,-38.25,-40.95,34.02,118.25,
06/01/2021,01:11:06.60,371.09,-961.43,-93.75,-0.79,1.40,-2.38,-170.70,-38.25,-40.95,34.02,118.25,
06/01/2021,01:11:06.61,359.86,-947.75,-112.79,1.28,-0.12,-2.20,-168.60,-39.30,-41.55,34.21,118.25,
06/01/2021,01:11:06.62,343.26,-958.98,-106.93,1.83,-1.52,-2.87,-173.55,-40.20,-38.55,34.02,118.25,
06/01/2021,01:11:06.62,352.05,-951.66,-115.23,2.13,0.06,-1.95,-173.55,-40.20,-38.55,34.21,118.25,
06/01/2021,01:11:06.63,358.89,-950.68,-112.79,1.71,-1.77,1.10,-173.55,-40.20,-38.55,33.97,118.25,
06/01/2021,01:11:06.63,354.49,-953.61,-96.68,0.06,1.10,-0.73,-170.70,-37.20,-40.20,33.97,118.25,
06/01/2021,01:11:06.67,354.00,-964.84,-106.93,0.55,-2.68,0.12,-174.45,-41.85,-37.65,34.12,118.25,
06/01/2021,01:11:06.67,337.89,-941.89,-103.03,1.40,0.30,-0.06,-174.45,-41.85,-37.65,33.97,118.25,
06/01/2021,01:11:06.68,347.17,-943.36,-96.19,1.77,0.00,-2.68,-171.30,-38.25,-40.95,34.21,118.25,
06/01/2021,01:11:06.68,358.40,-945.31,-109.38,2.13,-0.55,-2.07,-171.30,-38.25,-40.95,34.02,118.25,
06/01/2021,01:11:06.69,360.84,-953.12,-104.49,1.83,-1.16,-2.20,-171.30,-38.25,-40.95,34.12,118.25,
06/01/2021,01:11:06.71,351.56,-960.94,-99.12,0.67,1.52,-0.06,-172.05,-38.70,-40.20,34.16,118.25,
06/01/2021,01:11:06.71,341.80,-956.54,-114.75,2.32,0.91,0.00,-172.05,-38.70,-40.20,34.02,118.25,
06/01/2021,01:11:06.74,347.66,-955.08,-114.26,0.91,-0.06,1.04,-172.80,-39.45,-40.20,34.12,118.24,
06/01/2021,01:11:06.76,360.84,-956.05,-96.68,0.61,0.43,-0.18,-171.90,-38.55,-40.50,33.88,118.24,
06/01/2021,01:11:06.76,356.93,-945.31,-108.40,-0.55,-1.83,-1.52,-171.90,-40.05,-39.45,33.88,118.24,
06/01/2021,01:11:06.78,352.54,-948.73,-108.89,0.24,0.30,-1.83,-171.00,-37.20,-40.95,34.12,118.24,
06/01/2021,01:11:06.79,352.05,-950.20,-117.68,0.55,-1.89,-0.73,-171.00,-37.20,-40.95,34.12,118.24,
06/01/2021,01:11:06.79,350.59,-959.47,-115.72,2.93,-0.43,-0.18,-170.70,-38.25,-39.90,34.21,118.24,
06/01/2021,01:11:06.80,370.12,-967.29,-105.47,0.37,1.22,-0.73,-170.70,-38.25,-39.90,34.21,118.24,
06/01/2021,01:11:06.80,356.45,-961.91,-114.75,0.61,-0.49,-0.91,-171.15,-38.55,-40.80,34.02,118.24,
06/01/2021,01:11:06.82,372.56,-958.50,-99.12,1.83,1.65,0.91,-171.15,-38.55,-40.80,34.02,118.24,
06/01/2021,01:11:06.83,345.70,-955.57,-123.05,0.49,-0.30,-0.61,-172.20,-40.80,-39.75,34.21,118.24,
06/01/2021,01:11:06.83,355.96,-953.12,-107.91,-0.49,5.37,-0.37,-172.20,-40.80,-39.75,33.97,118.24,
06/01/2021,01:11:06.84,359.86,-955.08,-97.66,1.22,1.16,0.12,-170.10,-38.10,-42.15,33.88,118.24,
06/01/2021,01:11:06.84,349.61,-949.71,-103.52,1.71,-1.22,-1.04,-170.10,-38.10,-42.15,34.12,118.24,
06/01/2021,01:11:06.85,360.84,-956.54,-112.30,1.89,0.37,-3.96,-170.10,-38.10,-42.15,34.02,118.25,
06/01/2021,01:11:06.86,346.19,-950.68,-82.03,2.32,0.85,0.55,-171.90,-38.85,-38.70,33.88,118.24,
06/01/2021,01:11:06.87,374.02,-963.38,-92.77,2.68,-0.06,-0.06,-171.90,-38.85,-38.70,34.12,118.24,
06/01/2021,01:11:06.88,369.14,-959.96,-99.61,1.52,1.83,0.49,-171.90,-38.85,-38.70,34.12,118.24,
06/01/2021,01:11:06.88,350.10,-965.33,-91.31,0.24,-0.61,0.18,-170.85,-39.30,-41.10,33.97,118.25,
06/01/2021,01:11:06.89,349.61,-968.75,-105.47,2.68,3.84,0.55,-170.85,-39.30,-41.10,34.21,118.25,
06/01/2021,01:11:06.90,358.89,-944.34,-108.40,2.13,2.38,-0.06,-172.05,-39.75,-38.10,34.02,118.24,
06/01/2021,01:11:06.91,356.45,-970.70,-101.07,-1.28,0.00,-0.12,-172.05,-39.75,-38.10,34.21,118.24,
06/01/2021,01:11:06.92,353.52,-948.73,-104.49,-0.37,4.51,-3.48,-170.40,-38.55,-40.80,34.02,118.25,
06/01/2021,01:11:06.92,361.82,-953.61,-113.77,1.40,2.44,1.52,-171.15,-38.10,-41.55,34.02,118.25,
06/01/2021,01:11:06.93,369.63,-949.71,-99.12,0.43,1.40,-0.61,-171.15,-38.10,-41.55,34.12,118.25,
06/01/2021,01:11:06.94,366.21,-966.31,-103.03,1.22,1.83,-0.12,-169.05,-38.85,-41.55,34.12,118.25,
06/01/2021,01:11:06.95,360.84,-955.57,-107.91,1.59,-1.04,0.49,-169.05,-38.85,-41.55,34.12,118.25,
06/01/2021,01:11:06.96,360.35,-970.21,-101.07,1.83,2.01,1.71,-172.20,-38.10,-39.75,34.02,118.25,
06/01/2021,01:11:06.96,362.30,-958.50,-101.56,3.11,1.28,2.26,-171.00,-37.95,-40.65,33.88,118.25,
06/01/2021,01:11:06.97,355.47,-952.64,-100.59,1.22,2.01,0.06,-171.00,-37.95,-40.65,34.31,118.25,
06/01/2021,01:11:06.98,354.98,-959.96,-96.19,1.10,2.20,0.00,-171.00,-38.25,-39.15,33.97,118.25,
06/01/2021,01:11:06.99,362.79,-960.94,-100.10,2.20,0.24,0.73,-171.00,-38.25,-39.15,33.88,118.25,
06/01/2021,01:11:06.99,362.30,-960.45,-108.89,1.28,-0.30,2.07,-170.25,-38.25,-40.95,34.02,118.25,
06/01/2021,01:11:07.00,374.02,-948.73,-96.68,2.44,0.79,1.16,-170.25,-38.25,-40.95,34.21,118.25,
06/01/2021,01:11:07.01,362.30,-968.26,-102.05,1.40,1.04,1.16,-170.25,-38.25,-40.95,33.68,118.25,
06/01/2021,01:11:07.02,363.28,-962.89,-108.40,1.40,3.29,0.43,-172.80,-38.25,-40.65,34.12,118.25,
06/01/2021,01:11:07.03,366.70,-962.40,-86.91,1.71,1.83,-1.65,-172.80,-38.25,-40.65,33.97,118.25,
06/01/2021,01:11:07.03,369.63,-952.15,-93.26,0.24,2.44,-0.55,-172.80,-38.25,-40.65,33.88,118.25,
06/01/2021,01:11:07.04,373.05,-963.38,-103.03,1.40,-1.52,-1.28,-172.80,-38.25,-40.65,34.12,118.25,
06/01/2021,01:11:07.05,370.12,-964.84,-103.52,2.13,1.52,-0.30,-169.05,-38.55,-41.55,33.64,118.25,
06/01/2021,01:11:07.05,369.14,-958.01,-101.07,0.55,1.16,-1.59,-171.00,-38.70,-41.40,33.88,118.25,
06/01/2021,01:11:07.07,354.00,-951.17,-107.42,1.52,-1.59,-0.61,-171.75,-39.75,-40.20,34.02,118.25,
06/01/2021,01:11:07.07,357.91,-953.61,-101.07,2.56,-0.79,-1.16,-172.05,-39.45,-39.15,34.21,118.25,
06/01/2021,01:11:07.08,370.61,-940.92,-103.52,1.46,0.55,-1.16,-172.05,-39.45,-39.15,33.68,118.25,
06/01/2021,01:11:07.09,360.35,-942.87,-107.42,3.48,-0.85,-0.61,-169.50,-38.25,-40.95,33.83,118.25,
06/01/2021,01:11:07.09,367.19,-946.78,-105.47,1.16,1.04,-3.29,-170.70,-37.95,-39.90,34.02,118.25,
06/01/2021,01:11:07.11,360.84,-946.78,-113.77,2.80,3.96,0.24,-171.00,-40.20,-40.65,34.02,118.25,
06/01/2021,01:11:07.11,367.19,-958.98,-105.47,1.95,0.91,-0.98,-172.50,-36.75,-38.85,33.88,118.25,
06/01/2021,01:11:07.12,363.77,-948.73,-106.45,1.40,-0.43,1.10,-172.50,-36.75,-38.85,34.02,118.25,
06/01/2021,01:11:07.12,374.02,-959.96,-111.33,-0.43,2.32,-2.62,-169.35,-38.85,-40.05,33.97,118.25,
06/01/2021,01:11:07.13,358.89,-937.50,-95.21,2.93,-0.85,-1.28,-169.35,-38.85,-40.05,34.12,118.25,
06/01/2021,01:11:07.15,357.91,-967.77,-99.61,0.91,3.11,-1.28,-170.40,-40.35,-39.45,33.68,118.25,
06/01/2021,01:11:07.15,357.91,-954.59,-104.49,1.04,-0.98,-1.77,-171.75,-40.20,-38.55,33.88,118.25,
06/01/2021,01:11:07.16,361.33,-964.84,-112.30,1.89,0.91,2.07,-171.75,-40.20,-38.55,34.12,118.25,
06/01/2021,01:11:07.16,366.21,-953.61,-105.96,2.01,-0.30,0.43,-171.75,-40.20,-38.55,34.02,118.25,
06/01/2021,01:11:07.17,366.70,-962.89,-100.59,0.67,1.71,-0.98,-169.95,-39.00,-40.20,34.12,118.25,
06/01/2021,01:11:07.19,363.77,-948.73,-110.35,1.95,1.89,0.00,-171.60,-38.85,-39.75,34.12,118.25,
06/01/2021,01:11:07.19,360.84,-958.50,-92.29,0.55,1.16,-1.65,-171.60,-38.85,-39.75,34.36,118.25,
06/01/2021,01:11:07.20,354.49,-957.03,-108.89,1.77,0.12,-0.67,-171.60,-38.85,-39.75,34.02,118.25,
06/01/2021,01:11:07.20,353.52,-960.94,-103.03,2.38,-1.59,-0.61,-171.75,-39.00,-40.20,33.97,118.25,
06/01/2021,01:11:07.21,354.98,-945.31,-108.40,1.89,1.89,-0.43,-171.75,-37.50,-39.90,33.78,118.25,
06/01/2021,01:11:07.27,357.42,-948.73,-107.42,0.43,1.52,-3.23,-171.60,-40.35,-39.45,34.02,118.24,
06/01/2021,01:11:07.29,358.89,-958.98,-92.77,3.29,1.95,1.77,-170.10,-40.05,-39.75,34.12,118.24,
06/01/2021,01:11:07.29,354.49,-958.01,-106.93,1.28,0.00,1.04,-170.10,-40.05,-39.75,34.12,118.24,
06/01/2021,01:11:07.30,361.82,-948.73,-94.73,1.34,2.26,0.30,-170.10,-40.05,-39.75,33.88,118.24,
06/01/2021,01:11:07.30,351.56,-957.03,-104.98,1.34,-0.18,-0.49,-171.30,-38.70,-38.85,33.88,118.24,
06/01/2021,01:11:07.32,348.63,-941.41,-101.56,3.11,-0.30,1.28,-170.40,-38.85,-41.10,33.97,118.24,
06/01/2021,01:11:07.32,359.38,-947.75,-101.07,1.28,1.22,-1.89,-170.40,-38.85,-41.10,34.02,118.24,
06/01/2021,01:11:07.33,354.98,-957.52,-100.10,1.16,-2.68,-0.06,-170.10,-37.35,-41.10,34.21,118.24,
06/01/2021,01:11:07.34,358.40,-958.98,-92.77,2.62,-1.83,1.16,-170.10,-37.35,-41.10,34.16,118.24,
06/01/2021,01:11:07.34,353.52,-955.08,-104.49,1.04,1.89,-0.37,-170.70,-37.95,-39.90,33.83,118.24,
06/01/2021,01:11:07.35,345.21,-958.98,-105.47,1.10,2.68,-1.22,-170.70,-37.95,-39.90,33.83,118.24,
06/01/2021,01:11:07.36,353.52,-948.24,-91.80,0.85,2.01,0.67,-171.15,-40.35,-40.50,34.12,118.24,
06/01/2021,01:11:07.37,369.14,-941.41,-100.59,2.68,1.34,1.10,-172.20,-39.30,-37.95,33.97,118.24,
06/01/2021,01:11:07.38,364.75,-962.40,-96.19,1.71,-0.61,-1.89,-172.20,-39.30,-37.95,34.16,118.24,
06/01/2021,01:11:07.38,372.56,-948.73,-109.38,2.87,-1.52,-0.49,-172.20,-39.30,-37.95,33.78,118.24,
06/01/2021,01:11:07.39,352.54,-956.05,-93.75,4.09,-2.99,0.43,-170.40,-39.60,-41.55,34.21,118.24,
06/01/2021,01:11:07.40,362.79,-953.12,-91.31,0.24,-1.89,-1.65,-170.85,-39.30,-39.45,34.12,118.24,
06/01/2021,01:11:07.41,368.16,-941.41,-107.91,0.91,-2.26,1.83,-172.95,-38.85,-37.95,33.97,118.24,
06/01/2021,01:11:07.42,363.77,-964.36,-96.68,3.54,-4.21,3.05,-172.95,-38.85,-37.95,34.02,118.24,
06/01/2021,01:11:07.42,373.05,-951.17,-83.98,1.04,-4.51,0.85,-168.15,-39.00,-40.95,34.12,118.24,
06/01/2021,01:11:07.43,362.79,-960.94,-98.14,3.05,-1.10,0.18,-172.05,-38.25,-39.90,34.16,118.24,
06/01/2021,01:11:07.44,365.72,-966.31,-87.89,2.62,0.67,1.95,-171.60,-38.55,-39.45,33.97,118.24,
06/01/2021,01:11:07.45,373.05,-950.68,-90.33,2.20,-3.05,-2.44,-172.50,-38.70,-39.60,34.12,118.24,
06/01/2021,01:11:07.46,356.45,-950.20,-93.75,4.27,-1.95,-0.24,-172.50,-38.70,-39.60,34.12,118.24,
06/01/2021,01:11:07.46,369.63,-945.80,-89.84,2.38,-1.10,-0.61,-170.10,-38.85,-40.05,34.21,118.24,
06/01/2021,01:11:07.47,365.23,-952.64,-85.94,2.50,-1.40,-0.43,-170.85,-39.30,-39.00,34.16,118.24,
06/01/2021,01:11:07.48,364.26,-953.61,-92.29,4.15,-4.27,1.65,-170.85,-39.30,-39.00,34.02,118.24,
06/01/2021,01:11:07.49,360.84,-956.05,-94.24,2.32,-2.01,-0.98,-171.60,-39.30,-39.00,33.97,118.24,
06/01/2021,01:11:07.49,383.30,-959.47,-89.84,2.38,0.30,-0.73,-171.60,-39.30,-39.00,34.12,118.24,
06/01/2021,01:11:07.50,366.70,-944.34,-87.40,2.32,-3.41,-0.98,-170.10,-39.60,-42.15,33.88,118.24,
06/01/2021,01:11:07.51,371.09,-963.38,-84.96,3.05,-2.07,-0.43,-170.10,-39.60,-42.15,34.02,118.25,
06/01/2021,01:11:07.52,363.28,-959.96,-101.07,5.30,-1.22,-1.52,-172.65,-40.35,-39.45,34.02,118.24,
06/01/2021,01:11:07.53,367.68,-961.43,-83.50,3.78,0.00,-1.46,-173.85,-39.45,-40.20,33.83,118.24,
06/01/2021,01:11:07.53,371.58,-966.31,-88.38,2.38,-2.93,-0.43,-173.85,-39.45,-40.20,34.02,118.25,
06/01/2021,01:11:07.54,364.75,-957.52,-92.77,0.85,-2.44,0.98,-173.85,-39.45,-40.20,34.21,118.25,
06/01/2021,01:11:07.55,366.70,-967.29,-90.82,1.77,-0.85,0.00,-173.85,-39.45,-40.20,34.21,118.25,
06/01/2021,01:11:07.55,358.40,-967.77,-106.45,3.48,-3.29,-1.10,-171.30,-38.25,-40.20,33.97,118.25,
06/01/2021,01:11:07.57,360.84,-961.91,-100.10,2.56,0.55,-1.28,-171.75,-39.45,-39.60,34.12,118.25,
06/01/2021,01:11:07.57,359.38,-968.75,-104.98,3.60,-0.24,0.67,-171.75,-39.45,-39.60,34.21,118.25,
06/01/2021,01:11:07.58,349.61,-959.96,-90.33,3.17,-1.65,-4.51,-170.70,-37.95,-38.85,34.02,118.25,
06/01/2021,01:11:07.59,361.33,-946.78,-92.29,3.78,-1.95,-5.18,-170.70,-37.95,-38.85,34.12,118.25,
06/01/2021,01:11:07.59,351.56,-952.15,-95.21,1.46,-1.10,-1.10,-172.20,-39.30,-41.55,33.83,118.25,
06/01/2021,01:11:07.61,355.47,-965.33,-100.10,4.27,1.65,-0.37,-171.60,-40.05,-76.65,33.88,118.25,
06/01/2021,01:11:07.61,351.56,-958.01,-97.17,2.32,-0.37,-2.38,-171.60,-40.05,-38.25,34.21,118.25,
06/01/2021,01:11:07.62,343.26,-961.91,-87.40,2.87,-4.51,-1.40,-172.05,-38.70,-40.20,34.21,118.25,
06/01/2021,01:11:07.62,366.21,-965.82,-96.19,4.21,-3.60,0.49,-172.05,-38.70,-40.20,34.02,118.25,
06/01/2021,01:11:07.63,347.17,-974.12,-94.24,3.05,-1.95,1.83,-169.80,-38.85,-41.55,33.78,118.25,
06/01/2021,01:11:07.65,351.56,-965.82,-101.56,1.83,-4.63,0.55,-170.85,-38.85,-41.55,34.02,118.25,
06/01/2021,01:11:07.65,333.98,-955.57,-93.75,2.13,-3.90,-1.22,-170.85,-39.30,-40.50,33.64,118.25,
06/01/2021,01:11:07.66,351.07,-959.47,-94.73,1.65,0.61,2.56,-171.60,-37.80,-41.10,33.88,118.25,
06/01/2021,01:11:07.66,356.93,-973.63,-84.47,2.93,-2.68,-0.49,-171.60,-37.80,-41.10,33.88,118.25,
06/01/2021,01:11:07.67,354.00,-958.98,-97.17,3.41,0.30,2.13,-171.60,-37.80,-41.10,33.88,118.25,
06/01/2021,01:11:07.68,350.10,-957.52,-95.21,3.54,-4.45,1.22,-171.15,-38.85,-41.85,34.12,118.25,
06/01/2021,01:11:07.69,344.73,-961.43,-99.61,3.29,-0.91,0.24,-172.65,-41.55,-39.75,34.12,118.25,
06/01/2021,01:11:07.70,345.21,-960.45,-100.59,2.87,-3.96,1.16,-172.65,-41.55,-39.75,33.88,118.25,
06/01/2021,01:11:07.70,348.63,-953.12,-95.21,2.20,0.18,-0.61,-172.65,-41.55,-39.75,34.12,118.25,
06/01/2021,01:11:07.71,354.49,-966.31,-102.05,3.72,-4.15,-0.30,-170.70,-39.45,-38.55,34.12,118.25,
06/01/2021,01:11:07.73,348.14,-966.80,-101.07,1.71,-3.96,-1.04,-170.25,-39.00,-42.00,33.83,118.25,
06/01/2021,01:11:07.76,369.14,-958.50,-98.63,2.20,-2.13,-0.12,-171.15,-38.55,-38.25,34.02,118.24,
06/01/2021,01:11:07.77,352.54,-957.52,-98.63,1.71,-2.01,1.83,-170.10,-39.30,-39.00,33.97,118.24,
06/01/2021,01:11:07.78,344.24,-973.14,-97.66,0.85,-0.85,1.28,-172.95,-39.60,-39.45,34.12,118.24,
06/01/2021,01:11:07.78,358.89,-954.10,-107.91,-2.20,-0.24,-0.55,-171.15,-38.85,-40.80,33.88,118.24,
06/01/2021,01:11:07.79,346.68,-966.31,-99.12,-0.55,-3.78,-2.38,-171.15,-38.85,-40.80,34.12,118.24,
06/01/2021,01:11:07.81,353.52,-949.22,-93.75,1.22,-1.77,1.59,-172.20,-41.10,-37.95,34.16,118.24,
06/01/2021,01:11:07.81,348.14,-952.15,-104.98,1.89,-2.01,0.49,-172.20,-41.10,-37.95,34.02,118.24,
06/01/2021,01:11:07.82,358.89,-968.26,-92.77,0.43,-0.37,-1.71,-170.85,-40.80,-40.05,34.12,118.24,
06/01/2021,01:11:07.82,350.59,-962.89,-98.14,2.13,-1.04,3.90,-170.85,-40.80,-40.05,34.12,118.24,
06/01/2021,01:11:07.83,337.89,-958.01,-92.77,-2.62,-2.80,1.40,-170.85,-40.80,-40.05,33.78,118.24,
06/01/2021,01:11:07.85,341.80,-961.43,-96.68,0.79,0.12,0.00,-171.60,-39.60,-39.75,33.97,118.24,
06/01/2021,01:11:07.85,345.70,-957.03,-101.56,-0.12,0.18,0.06,-171.60,-39.60,-39.75,34.21,118.24,
06/01/2021,01:11:07.86,338.87,-963.87,-93.75,-1.89,-3.11,-0.79,-171.60,-39.60,-39.75,33.88,118.24,
06/01/2021,01:11:07.86,349.12,-964.84,-85.45,-0.79,-3.35,0.00,-171.60,-39.60,-39.75,34.16,118.24,
06/01/2021,01:11:07.87,362.79,-963.87,-107.91,0.67,1.04,-0.79,-170.40,-39.30,-40.05,34.21,118.24,
06/01/2021,01:11:07.88,344.73,-955.08,-99.61,1.83,-0.55,-0.12,-168.90,-37.50,-41.40,34.12,118.24,
06/01/2021,01:11:07.89,356.45,-973.63,-87.40,0.79,2.07,1.95,-168.90,-37.50,-41.40,33.97,118.24,
06/01/2021,01:11:07.90,350.59,-960.45,-87.89,-0.37,-2.62,1.34,-169.35,-39.60,-41.10,34.12,118.24,
06/01/2021,01:11:07.90,348.63,-968.26,-85.45,0.00,-2.74,1.10,-169.35,-39.60,-41.10,34.02,118.24,
06/01/2021,01:11:07.91,350.10,-956.05,-99.61,-0.85,1.59,-0.85,-170.10,-39.30,-41.55,34.02,118.25,
06/01/2021,01:11:07.92,356.45,-962.89,-90.82,0.37,-1.46,2.01,-170.10,-39.30,-41.55,33.97,118.24,
06/01/2021,01:11:07.93,348.14,-963.87,-97.66,0.79,-1.04,-1.46,-171.15,-40.05,-39.45,33.83,118.24,
06/01/2021,01:11:07.94,356.45,-953.12,-79.59,-1.77,-2.87,-2.50,-169.95,-37.95,-40.65,33.88,118.24,
06/01/2021,01:11:07.94,363.28,-950.20,-86.43,-0.37,0.12,-0.49,-169.95,-37.95,-40.65,33.97,118.25,
06/01/2021,01:11:07.95,364.26,-961.43,-97.66,0.67,0.73,1.16,-169.95,-37.95,-40.65,34.12,118.25,
06/01/2021,01:11:07.96,351.56,-951.17,-89.36,1.65,-0.91,-0.61,-171.15,-37.80,-40.05,34.12,118.24,
06/01/2021,01:11:07.97,354.98,-948.73,-90.82,0.73,-1.10,0.43,-171.75,-40.50,-38.10,34.12,118.25,
06/01/2021,01:11:07.98,352.54,-946.78,-86.91,-1.71,0.18,0.24,-170.85,-39.30,-41.10,34.02,118.25,
06/01/2021,01:11:07.98,353.03,-964.84,-88.38,-0.24,-0.91,-0.55,-170.85,-39.30,-41.10,34.02,118.25,
06/01/2021,01:11:07.99,339.36,-967.77,-85.94,0.24,-1.10,1.83,-169.80,-39.30,-40.80,34.12,118.25,
06/01/2021,01:11:08.00,343.75,-962.89,-86.91,0.85,-2.50,0.55,-170.70,-39.00,-40.95,33.97,118.25,
06/01/2021,01:11:08.01,361.33,-947.27,-72.27,1.59,3.66,0.30,-172.50,-41.25,-39.90,34.02,118.25,
06/01/2021,01:11:08.01,352.54,-960.45,-89.36,2.07,-1.65,-1.34,-170.70,-37.95,-40.65,33.88,118.25,
06/01/2021,01:11:08.02,351.56,-964.84,-79.59,0.43,-0.37,1.28,-170.70,-37.95,-40.65,33.97,118.25,
06/01/2021,01:11:08.03,345.21,-956.54,-84.96,0.37,0.49,3.66,-170.10,-38.85,-41.55,34.02,118.25,
06/01/2021,01:11:08.03,348.14,-958.01,-84.96,0.67,1.04,0.91,-170.10,-38.85,-41.55,34.16,118.25,
06/01/2021,01:11:08.05,357.42,-960.45,-85.45,1.95,-0.91,-1.77,-169.95,-39.00,-42.00,33.83,118.25,
06/01/2021,01:11:08.05,365.23,-960.45,-83.01,0.91,-2.32,-2.32,-172.65,-39.30,-38.70,34.02,118.25,
06/01/2021,01:11:08.06,350.59,-967.29,-88.87,0.98,-1.46,0.30,-172.65,-39.30,-38.70,34.21,118.25,
06/01/2021,01:11:08.07,366.21,-953.61,-87.40,0.24,-0.06,-0.61,-172.50,-38.70,-40.65,33.88,118.25,
06/01/2021,01:11:08.07,362.30,-957.03,-86.91,-0.37,0.91,0.00,-172.50,-38.70,-40.65,33.83,118.25,
06/01/2021,01:11:08.09,361.82,-954.10,-89.36,1.10,-1.40,1.83,-171.60,-40.35,-39.45,33.88,118.25,
06/01/2021,01:11:08.09,356.45,-953.61,-86.91,-0.55,-2.62,-1.77,-172.65,-40.05,-39.75,33.88,118.25,
06/01/2021,01:11:08.10,348.63,-950.68,-97.17,1.40,-1.59,0.55,-172.65,-40.05,-39.75,34.02,118.25,
06/01/2021,01:11:08.11,366.21,-967.77,-93.75,0.43,-1.65,0.79,-172.65,-40.05,-39.75,33.88,118.25,
06/01/2021,01:11:08.11,355.96,-944.34,-98.14,0.73,1.04,0.55,-172.65,-40.05,-39.75,34.21,118.25,
06/01/2021,01:11:08.13,352.05,-947.27,-98.63,-0.06,2.01,0.55,-172.50,-40.50,-39.15,33.78,118.25,
06/01/2021,01:11:08.13,351.56,-954.59,-96.19,-0.06,-1.16,-0.12,-172.50,-40.50,-39.15,34.12,118.25,
06/01/2021,01:11:08.14,351.56,-953.61,-89.36,2.07,2.68,-3.48,-172.50,-40.50,-39.15,34.02,118.25,
06/01/2021,01:11:08.14,355.96,-954.10,-84.47,-0.24,-0.73,-0.37,-169.95,-37.95,-41.40,34.12,118.25,
06/01/2021,01:11:08.15,352.05,-961.43,-84.96,-0.06,-3.96,0.18,-169.95,-37.95,-41.40,33.97,118.25,
06/01/2021,01:11:08.17,370.61,-952.64,-86.43,0.00,-0.61,-2.56,-171.30,-38.70,-40.20,34.02,118.25,
06/01/2021,01:11:08.17,353.03,-967.77,-97.66,1.34,2.01,-1.59,-171.30,-38.70,-40.20,34.02,118.25,
06/01/2021,01:11:08.18,361.33,-969.24,-89.84,0.24,2.56,0.18,-170.25,-39.00,-39.15,34.02,118.25,
06/01/2021,01:11:08.18,345.70,-954.10,-91.80,0.85,-0.85,-0.79,-170.40,-38.10,-39.75,34.02,118.25,
06/01/2021,01:11:08.19,353.03,-948.24,-97.17,0.30,0.12,0.55,-170.40,-38.10,-39.75,33.64,118.25,
06/01/2021,01:11:08.20,367.68,-955.57,-93.75,3.41,-2.07,0.06,-170.85,-38.85,-39.00,34.02,118.25,
06/01/2021,01:11:08.21,363.28,-963.87,-90.82,1.71,-0.24,1.40,-171.30,-38.70,-39.90,33.88,118.25,
06/01/2021,01:11:08.22,362.79,-959.47,-83.50,3.17,-2.87,0.00,-172.95,-40.35,-40.50,33.97,118.25,
06/01/2021,01:11:08.22,354.00,-968.26,-78.12,1.22,-0.98,-1.40,-170.40,-39.60,-40.50,34.02,118.25,
06/01/2021,01:11:08.23,362.30,-965.33,-93.26,1.34,-1.28,-0.43,-170.40,-39.60,-40.50,34.02,118.25,
06/01/2021,01:11:08.23,373.05,-958.50,-109.38,2.99,-0.30,-0.85,-170.25,-38.70,-40.65,34.02,118.25,
06/01/2021,01:11:08.28,369.63,-950.68,-105.96,0.06,-1.22,0.37,-171.75,-39.45,-38.85,34.21,118.25,
06/01/2021,01:11:08.29,345.21,-961.43,-104.00,0.12,0.37,-2.44,-172.95,-39.30,-39.00,34.02,118.24,
06/01/2021,01:11:08.30,351.56,-946.29,-96.68,1.52,-0.91,-0.43,-172.95,-39.30,-39.00,34.31,118.24,
06/01/2021,01:11:08.30,353.03,-960.45,-91.80,0.49,-4.70,-2.01,-170.10,-39.30,-40.05,34.02,118.24,
06/01/2021,01:11:08.31,358.40,-956.05,-106.45,0.73,0.37,-0.91,-170.10,-39.30,-40.05,34.21,118.25,
06/01/2021,01:11:08.33,360.35,-957.03,-95.70,-0.37,0.18,-1.52,-170.40,-40.05,-40.50,34.12,118.24,
06/01/2021,01:11:08.33,353.52,-958.01,-96.19,-0.79,0.43,-3.29,-170.40,-40.05,-40.50,34.02,118.24,
06/01/2021,01:11:08.34,363.28,-955.08,-92.77,2.56,0.06,0.73,-172.65,-39.30,-39.45,34.12,118.25,
06/01/2021,01:11:08.34,360.84,-958.50,-77.15,1.46,-0.30,0.43,-170.40,-38.10,-40.50,33.97,118.25,
06/01/2021,01:11:08.35,345.21,-950.68,-90.82,1.46,-5.24,-0.55,-170.40,-38.10,-40.50,33.78,118.25,
06/01/2021,01:11:08.36,365.23,-963.87,-93.75,0.12,0.12,0.06,-174.30,-40.20,-38.55,34.02,118.24,
06/01/2021,01:11:08.37,349.12,-966.31,-93.75,-0.49,0.61,-3.54,-174.30,-40.20,-38.55,33.97,118.25,
06/01/2021,01:11:08.38,350.59,-963.38,-89.84,0.49,-0.79,-2.87,-170.40,-37.05,-40.05,34.12,118.25,
06/01/2021,01:11:08.38,352.54,-964.84,-95.70,1.16,-1.16,-0.24,-171.15,-40.05,-40.50,33.97,118.25,
06/01/2021,01:11:08.39,358.89,-965.82,-96.68,0.49,-1.28,1.10,-171.15,-40.05,-40.50,34.12,118.25,
06/01/2021,01:11:08.40,348.14,-941.89,-87.89,0.91,-1.22,-0.12,-171.00,-39.00,-38.55,34.21,118.25,
06/01/2021,01:11:08.41,353.52,-959.47,-91.31,-0.67,-1.28,-1.89,-171.00,-39.00,-38.55,34.02,118.25,
06/01/2021,01:11:08.42,351.07,-962.40,-97.66,-1.95,2.26,0.30,-171.75,-38.25,-40.20,33.97,118.25,
06/01/2021,01:11:08.42,354.00,-966.31,-76.17,2.44,0.43,-0.06,-171.75,-38.25,-40.20,34.21,118.25,
06/01/2021,01:11:08.43,354.49,-963.87,-76.17,0.55,0.61,-1.04,-171.75,-38.25,-40.20,34.12,118.25,
06/01/2021,01:11:08.44,344.24,-958.50,-78.12,0.12,-3.17,2.56,-171.00,-40.20,-39.90,33.97,118.25,
06/01/2021,01:11:08.45,343.75,-962.40,-81.54,2.32,-0.67,-0.55,-171.00,-40.20,-39.90,34.02,118.25,
06/01/2021,01:11:08.46,349.12,-955.57,-104.00,2.01,1.52,-2.62,-171.00,-40.20,-39.90,33.78,118.25,
06/01/2021,01:11:08.46,352.54,-953.61,-80.57,1.52,-1.71,0.67,-170.25,-39.75,-40.65,33.88,118.25,
06/01/2021,01:11:08.47,346.68,-961.91,-92.29,-0.18,-0.18,1.16,-170.25,-39.75,-40.65,34.16,118.25,
06/01/2021,01:11:08.47,375.00,-961.43,-89.36,1.10,0.43,1.71,-170.25,-39.45,-40.20,33.83,118.25,
06/01/2021,01:11:08.49,351.07,-965.82,-93.26,2.62,-0.73,1.65,-170.25,-39.45,-40.20,34.02,118.25,
06/01/2021,01:11:08.50,342.29,-954.59,-78.12,1.22,-3.66,1.34,-172.95,-40.35,-39.75,34.12,118.25,
06/01/2021,01:11:08.50,341.31,-962.89,-82.03,0.12,0.30,-1.34,-170.85,-37.80,-40.80,34.12,118.25,
06/01/2021,01:11:08.51,350.59,-958.50,-89.36,2.01,-1.52,-0.12,-170.85,-37.80,-40.80,33.97,118.25,
06/01/2021,01:11:08.51,346.19,-970.21,-89.36,1.22,-1.71,-0.79,-170.85,-37.80,-40.80,33.88,118.25,
06/01/2021,01:11:08.53,351.56,-958.50,-96.68,1.34,1.59,-0.24,-170.10,-38.55,-40.50,33.97,118.25,
06/01/2021,01:11:08.53,355.47,-953.61,-103.03,1.28,-1.40,-1.59,-171.90,-40.80,-37.95,33.88,118.25,
06/01/2021,01:11:08.54,361.82,-959.96,-84.96,2.38,0.91,-0.49,-170.25,-38.25,-41.70,33.97,118.25,
06/01/2021,01:11:08.55,357.42,-955.08,-83.98,0.24,-2.74,-1.71,-170.25,-38.25,-41.70,34.02,118.25,
06/01/2021,01:11:08.55,354.00,-960.45,-81.05,1.89,-1.10,-0.49,-170.40,-38.10,-39.75,34.02,118.25,
06/01/2021,01:11:08.57,350.59,-959.96,-88.38,3.17,-0.61,-1.22,-173.25,-40.20,-41.40,34.12,118.25,
06/01/2021,01:11:08.57,342.77,-962.40,-94.24,2.93,0.98,0.06,-173.70,-40.80,-38.25,33.97,118.25,
06/01/2021,01:11:08.58,363.28,-960.45,-89.36,2.38,-2.01,0.06,-173.70,-40.80,-38.25,34.31,118.25,
06/01/2021,01:11:08.59,359.86,-973.14,-88.87,0.79,-0.12,0.43,-171.00,-38.70,-39.90,33.88,118.25,
06/01/2021,01:11:08.59,365.72,-957.52,-100.10,2.38,0.30,1.16,-171.30,-39.00,-39.60,33.88,118.25,
06/01/2021,01:11:08.61,362.30,-960.94,-81.54,1.10,-0.98,0.18,-170.70,-40.20,-39.60,33.88,118.25,
06/01/2021,01:11:08.61,352.05,-968.26,-93.26,1.34,-0.91,-0.49,-170.70,-40.20,-39.60,34.02,118.25,
06/01/2021,01:11:08.62,350.10,-966.31,-85.94,0.43,-1.83,1.04,-170.70,-40.20,-39.60,34.31,118.25,
06/01/2021,01:11:08.62,352.05,-956.54,-97.66,0.43,3.60,-0.49,-170.40,-39.30,-41.10,34.12,118.25,
06/01/2021,01:11:08.63,354.98,-955.57,-99.12,2.26,-2.32,0.61,-170.70,-38.25,-40.20,34.12,118.25,
06/01/2021,01:11:08.64,348.14,-955.08,-89.36,1.22,-0.61,2.38,-170.70,-38.25,-40.20,33.83,118.25,
06/01/2021,01:11:08.65,350.10,-960.45,-98.63,2.44,0.73,-0.43,-172.65,-39.60,-37.20,33.88,118.25,
06/01/2021,01:11:08.66,357.91,-963.38,-107.42,2.13,-1.83,0.30,-172.65,-39.60,-37.20,34.21,118.25,
06/01/2021,01:11:08.66,346.68,-956.05,-98.14,2.26,-1.34,0.24,-172.20,-38.85,-39.75,34.16,118.25,
06/01/2021,01:11:08.67,343.75,-960.94,-93.26,1.52,0.79,0.00,-172.20,-38.85,-39.75,34.02,118.25,
06/01/2021,01:11:08.68,354.98,-957.03,-108.40,1.16,-2.56,-1.34,-172.20,-38.85,-39.75,34.02,118.25,
06/01/2021,01:11:08.69,345.70,-964.36,-93.75,0.85,-0.18,-0.73,-170.10,-40.05,-39.45,34.02,118.25,
06/01/2021,01:11:08.70,344.24,-958.50,-88.87,2.26,-1.22,1.34,-170.10,-40.05,-39.45,33.88,118.25,
06/01/2021,01:11:08.70,352.05,-970.70,-88.38,2.13,-0.98,2.13,-170.10,-40.05,-39.45,34.16,118.25,
06/01/2021,01:11:08.71,344.73,-972.17,-102.54,1.71,-2.74,2.26,-169.50,-38.70,-39.90,33.88,118.25,
06/01/2021,01:11:08.72,360.84,-968.26,-95.21,1.40,-0.06,-1.59,-169.50,-38.70,-39.90,33.97,118.25,
06/01/2021,01:11:08.73,361.33,-956.54,-104.98,0.61,-2.32,-0.30,-172.65,-38.85,-39.00,34.02,118.25,
06/01/2021,01:11:08.74,340.33,-957.03,-93.26,1.04,-1.10,1.89,-172.65,-38.85,-39.00,34.12,118.25,
06/01/2021,01:11:08.74,351.56,-963.38,-99.12,1.65,-0.98,1.16,-170.85,-38.55,-40.80,34.12,118.25,
06/01/2021,01:11:08.75,369.63,-961.43,-101.56,-0.18,-0.85,0.43,-170.85,-38.55,-40.80,34.21,118.25,
06/01/2021,01:11:08.75,356.93,-952.15,-90.82,-0.73,-0.37,-0.67,-171.60,-40.05,-39.00,33.88,118.25,
06/01/2021,01:11:08.80,357.42,-959.96,-103.52,1.59,-0.37,1.59,-171.30,-39.00,-39.15,34.02,118.25,
06/01/2021,01:11:08.81,359.86,-963.38,-100.59,-1.04,-0.30,0.73,-171.15,-40.35,-37.65,34.21,118.25,
06/01/2021,01:11:08.82,372.07,-955.57,-100.10,-0.85,0.24,1.77,-173.25,-40.35,-37.65,34.02,118.25,
06/01/2021,01:11:08.82,367.68,-948.24,-93.75,-0.73,-2.87,2.56,-173.25,-39.75,-38.85,34.12,118.25,
06/01/2021,01:11:08.83,353.03,-960.45,-94.24,-0.85,-0.49,1.10,-173.25,-39.75,-38.85,33.88,118.25,
06/01/2021,01:11:08.85,362.30,-959.47,-100.10,0.43,-0.43,4.09,-170.25,-38.70,-40.65,34.16,118.25,
06/01/2021,01:11:08.85,357.42,-951.17,-104.49,0.37,-1.04,2.93,-173.40,-40.80,-36.90,33.97,118.25,
06/01/2021,01:11:08.86,367.68,-944.34,-91.31,-1.22,-2.32,0.49,-173.40,-40.80,-36.90,34.02,118.25,
06/01/2021,01:11:08.86,343.26,-957.52,-94.24,0.85,-0.67,0.12,-173.40,-40.80,-36.90,33.88,118.25,
06/01/2021,01:11:08.87,358.89,-966.80,-97.66,0.30,0.73,2.13,-170.70,-37.50,-40.65,33.78,118.25,
06/01/2021,01:11:08.88,361.33,-961.43,-89.84,0.55,-0.24,-0.49,-171.30,-39.75,-40.20,34.02,118.25,
06/01/2021,01:11:08.89,375.49,-951.66,-91.80,-1.28,-4.21,0.37,-172.65,-40.35,-37.20,33.83,118.25,
06/01/2021,01:11:08.90,351.07,-958.01,-98.63,-2.87,-1.65,-1.89,-172.65,-40.35,-37.20,34.02,118.25,
06/01/2021,01:11:08.90,355.47,-950.20,-97.17,-1.46,-1.28,0.06,-169.50,-39.00,-41.40,34.02,118.25,
06/01/2021,01:11:08.91,366.21,-952.15,-89.36,-0.43,-0.55,4.02,-170.70,-39.75,-40.65,34.02,118.25,
06/01/2021,01:11:08.91,363.28,-958.98,-95.21,-0.24,1.52,-2.38,-170.70,-39.75,-40.65,34.21,118.25,
06/01/2021,01:11:08.93,362.30,-954.59,-87.89,-0.43,-3.35,1.46,-172.65,-39.60,-39.75,34.12,118.25,
06/01/2021,01:11:08.94,366.21,-966.80,-91.31,1.40,1.16,0.06,-172.65,-39.60,-39.75,34.12,118.25,
06/01/2021,01:11:08.94,360.84,-956.54,-93.26,-0.79,-2.80,-2.26,-169.35,-39.60,-39.75,34.02,118.25,
06/01/2021,01:11:08.95,361.82,-958.50,-105.96,0.49,-1.89,1.40,-172.05,-39.45,-39.60,34.02,118.25,
06/01/2021,01:11:08.95,366.21,-958.98,-97.17,0.37,-0.06,-0.73,-172.05,-39.45,-39.60,34.12,118.25,
06/01/2021,01:11:08.97,356.93,-948.24,-90.82,0.06,-2.32,0.79,-171.60,-38.85,-39.00,33.97,118.25,
06/01/2021,01:11:08.98,360.84,-953.12,-92.29,1.59,2.56,-2.13,-171.60,-38.85,-39.00,34.12,118.25,
06/01/2021,01:11:08.98,352.05,-958.50,-80.57,-1.52,-4.33,-0.79,-171.30,-37.50,-39.90,34.12,118.25,
06/01/2021,01:11:08.99,358.40,-953.61,-90.33,-0.30,-2.50,0.79,-171.30,-37.50,-39.90,34.21,118.25,
06/01/2021,01:11:08.99,359.38,-949.22,-93.26,0.73,-4.39,0.37,-171.30,-37.50,-39.90,34.12,118.25,
06/01/2021,01:11:09.01,346.19,-969.73,-92.29,1.65,-3.84,0.55,-172.50,-39.00,-39.60,34.21,118.25,
06/01/2021,01:11:09.02,351.56,-952.15,-78.61,2.68,-1.71,-0.24,-172.50,-39.00,-39.60,34.21,118.25,
06/01/2021,01:11:09.03,340.82,-950.20,-88.87,0.37,-1.77,0.61,-172.50,-39.00,-39.60,34.02,118.25,
06/01/2021,01:11:09.03,363.77,-962.89,-89.84,-0.73,0.24,-0.30,-171.90,-38.10,-40.05,34.12,118.25,
06/01/2021,01:11:09.04,368.16,-963.38,-83.01,0.37,-0.91,-0.37,-170.85,-38.10,-40.80,34.02,118.25,
06/01/2021,01:11:09.05,347.66,-958.50,-87.89,-1.77,0.12,-2.20,-170.85,-38.10,-40.80,34.02,118.25,
06/01/2021,01:11:09.06,351.56,-956.54,-86.91,-1.16,-3.41,-0.30,-171.90,-38.55,-39.00,34.02,118.25,
06/01/2021,01:11:09.07,369.14,-962.40,-89.84,2.07,0.30,0.37,-171.90,-38.55,-39.00,34.16,118.25,
06/01/2021,01:11:09.07,366.21,-952.64,-90.33,1.71,-4.88,1.46,-170.70,-39.00,-41.40,33.78,118.25,
06/01/2021,01:11:09.08,362.30,-958.50,-91.31,0.24,-1.34,0.61,-169.95,-38.70,-40.20,34.21,118.25,
06/01/2021,01:11:09.09,360.84,-949.71,-104.00,-0.67,-3.41,-1.65,-169.95,-40.95,-39.90,34.02,118.25,
06/01/2021,01:11:09.10,347.66,-956.05,-93.26,0.73,-0.67,-0.67,-171.30,-40.20,-37.80,33.64,118.25,
06/01/2021,01:11:09.10,359.38,-950.68,-93.26,-0.30,0.49,-1.04,-171.30,-40.20,-37.80,34.12,118.25,
06/01/2021,01:11:09.11,353.03,-953.61,-89.84,3.66,-1.40,1.59,-170.25,-37.95,-40.95,34.02,118.25,
06/01/2021,01:11:09.12,356.45,-964.36,-96.68,1.34,-1.89,1.34,-169.05,-39.60,-40.80,34.02,118.25,
06/01/2021,01:11:09.12,359.38,-963.87,-103.52,0.73,-1.77,-0.98,-169.05,-39.60,-40.80,34.02,118.25,
06/01/2021,01:11:09.14,349.61,-960.94,-89.36,0.91,-1.59,-0.79,-171.90,-40.05,-38.25,34.02,118.25,
06/01/2021,01:11:09.14,352.05,-972.66,-92.77,2.26,0.30,-1.89,-171.90,-40.05,-38.25,34.12,118.25,
06/01/2021,01:11:09.15,349.12,-951.17,-84.96,0.73,-2.56,-1.10,-169.95,-39.75,-39.60,33.83,118.25,
06/01/2021,01:11:09.16,354.49,-961.91,-103.52,1.40,-1.65,-0.49,-171.90,-39.60,-40.05,33.83,118.25,
06/01/2021,01:11:09.16,347.66,-960.45,-95.21,0.43,-1.65,-2.74,-171.90,-39.60,-40.05,34.12,118.25,
06/01/2021,01:11:09.18,349.61,-956.05,-92.77,1.04,-1.46,0.24,-170.10,-38.85,-39.45,33.88,118.25,
06/01/2021,01:11:09.18,362.30,-976.07,-98.14,2.13,-0.61,0.61,-170.10,-38.85,-39.45,34.02,118.25,
06/01/2021,01:11:09.19,357.91,-941.41,-96.19,0.49,-2.80,1.04,-171.15,-37.80,-40.05,34.02,118.25,
06/01/2021,01:11:09.20,357.42,-952.64,-100.59,2.62,-0.43,0.30,-170.70,-40.20,-40.65,34.02,118.25,
06/01/2021,01:11:09.20,353.03,-967.77,-94.73,0.73,-0.06,-1.77,-170.70,-40.20,-40.65,34.21,118.25,
06/01/2021,01:11:09.22,348.63,-970.21,-97.66,-0.49,-2.56,0.61,-172.65,-39.60,-39.75,33.83,118.25,
06/01/2021,01:11:09.22,357.91,-951.17,-104.98,1.16,-0.73,-2.38,-172.65,-39.60,-39.75,33.83,118.25,
06/01/2021,01:11:09.23,338.87,-966.31,-99.61,-0.43,-1.04,-2.38,-171.75,-38.70,-41.70,34.02,118.25,
06/01/2021,01:11:09.24,355.96,-958.01,-109.86,0.85,-0.85,0.61,-171.75,-38.70,-41.70,34.16,118.25,
06/01/2021,01:11:09.24,350.59,-954.59,-108.40,1.34,-0.06,1.22,-171.75,-38.70,-41.70,34.16,118.25,
06/01/2021,01:11:09.26,351.56,-967.29,-107.91,-0.73,-1.40,-1.89,-172.05,-40.20,-39.60,34.02,118.25,
06/01/2021,01:11:09.26,336.43,-958.01,-97.66,2.26,1.16,0.91,-172.05,-40.20,-39.60,33.83,118.25,
06/01/2021,01:11:09.27,355.47,-963.87,-101.07,-0.24,-2.56,1.16,-172.05,-40.20,-39.60,33.88,118.25,
06/01/2021,01:11:09.27,343.26,-973.63,-94.24,-0.79,-0.79,-1.10,-172.05,-40.20,-39.60,34.02,118.25,
06/01/2021,01:11:09.31,347.66,-955.08,-96.19,-0.18,-1.10,-2.62,-172.05,-39.45,-37.80,33.78,118.25,
06/01/2021,01:11:09.33,357.42,-953.61,-91.31,0.37,1.34,-0.73,-171.15,-38.85,-40.05,33.97,118.25,
06/01/2021,01:11:09.34,354.98,-966.31,-107.91,0.91,-0.18,-0.85,-172.95,-40.05,-39.00,33.83,118.25,
06/01/2021,01:11:09.34,346.68,-947.75,-96.68,0.73,-1.16,-1.52,-172.95,-40.05,-39.00,34.02,118.25,
06/01/2021,01:11:09.35,355.47,-965.82,-110.84,0.06,-0.98,0.85,-170.40,-38.85,-42.15,33.97,118.25,
06/01/2021,01:11:09.36,351.07,-958.01,-96.68,0.00,-0.61,-1.16,-169.50,-38.70,-40.20,34.12,118.25,
06/01/2021,01:11:09.37,344.24,-964.84,-97.66,1.04,-5.06,0.06,-169.50,-38.70,-40.20,34.02,118.25,
06/01/2021,01:11:09.38,354.00,-953.61,-101.56,1.95,0.98,1.04,-172.05,-39.45,-39.15,33.97,118.25,
06/01/2021,01:11:09.38,347.17,-960.45,-107.42,0.49,-0.98,-1.28,-172.05,-39.45,-39.15,34.16,118.25,
06/01/2021,01:11:09.39,352.54,-962.89,-107.91,-0.43,1.65,-2.26,-170.70,-40.95,-40.20,33.97,118.25,
06/01/2021,01:11:09.39,352.54,-963.87,-112.30,1.10,-5.12,-0.73,-170.70,-40.95,-40.20,34.21,118.25,
06/01/2021,01:11:09.40,359.38,-954.10,-119.14,1.46,-0.30,0.98,-170.70,-40.95,-40.20,34.12,118.25,
06/01/2021,01:11:09.42,350.59,-954.10,-99.61,0.91,-0.85,-2.13,-172.65,-40.80,-39.75,34.02,118.25,
06/01/2021,01:11:09.42,352.05,-959.96,-113.77,-1.34,0.67,1.52,-172.65,-40.80,-39.75,34.12,118.25,
06/01/2021,01:11:09.43,357.91,-956.05,-92.29,-0.91,-1.89,-2.68,-172.65,-40.80,-39.75,33.97,118.25,
06/01/2021,01:11:09.43,350.10,-964.84,-96.19,1.10,-2.44,0.24,-172.65,-40.80,-39.75,34.12,118.25,
06/01/2021,01:11:09.44,356.93,-965.33,-92.29,-0.43,-4.45,0.61,-171.75,-37.20,-40.65,33.88,118.25,
06/01/2021,01:11:09.46,357.42,-948.73,-92.29,1.16,1.95,0.61,-171.75,-39.75,-38.10,34.02,118.25,
06/01/2021,01:11:09.46,354.49,-964.84,-100.59,-0.37,-1.16,-0.12,-171.75,-39.75,-38.10,34.02,118.25,
06/01/2021,01:11:09.47,348.63,-955.08,-102.54,-0.85,-2.44,-0.61,-171.30,-38.25,-38.85,34.02,118.25,
06/01/2021,01:11:09.47,344.73,-957.52,-102.05,1.28,-2.87,-0.43,-171.30,-38.25,-38.85,34.12,118.25,
06/01/2021,01:11:09.48,357.91,-964.84,-99.12,0.06,-1.10,-1.28,-170.40,-38.85,-41.85,33.97,118.25,
06/01/2021,01:11:09.49,355.47,-950.20,-102.05,1.83,-1.22,-0.85,-172.65,-38.10,-38.25,34.12,118.25,
06/01/2021,01:11:09.50,349.12,-950.68,-87.89,1.65,-1.59,-1.83,-172.65,-38.10,-38.25,34.02,118.25,
06/01/2021,01:11:09.51,357.42,-965.33,-91.31,1.10,-1.83,1.95,-170.70,-38.25,-40.65,33.97,118.25,
06/01/2021,01:11:09.51,336.43,-950.20,-102.54,0.79,-1.28,2.32,-170.70,-38.25,-40.65,34.12,118.25,
06/01/2021,01:11:09.52,348.63,-967.29,-100.59,2.13,-2.68,3.54,-169.20,-39.00,-40.65,33.83,118.25,
06/01/2021,01:11:09.53,359.38,-959.47,-93.75,1.04,-0.55,0.00,-171.60,-39.30,-39.45,34.21,118.25,
06/01/2021,01:11:09.54,364.75,-950.20,-104.49,0.79,-0.55,-0.06,-171.60,-39.30,-39.45,33.97,118.25,
06/01/2021,01:11:09.55,345.21,-964.36,-85.45,1.10,2.13,-1.22,-169.80,-40.05,-40.80,33.97,118.25,
06/01/2021,01:11:09.55,343.75,-960.45,-95.21,2.01,-0.73,2.50,-169.80,-40.05,-40.80,34.12,118.25,
06/01/2021,01:11:09.56,363.77,-963.38,-95.21,1.22,-0.37,2.20,-169.80,-40.05,-40.80,34.02,118.25,
06/01/2021,01:11:09.57,352.54,-946.29,-86.43,0.06,-2.74,1.83,-171.15,-39.60,-38.25,33.97,118.25,
06/01/2021,01:11:09.58,355.47,-951.66,-99.61,3.11,1.40,-0.49,-171.15,-39.60,-38.25,34.02,118.25,
06/01/2021,01:11:09.59,345.21,-964.84,-95.21,1.34,0.85,0.98,-171.15,-39.60,-38.25,34.12,118.25,
06/01/2021,01:11:09.59,355.96,-965.33,-98.14,1.28,-0.79,0.24,-171.15,-39.60,-38.25,33.97,118.25,
06/01/2021,01:11:09.60,354.49,-955.08,-98.63,2.87,-1.59,-0.06,-170.40,-38.10,-42.15,34.12,118.25,
06/01/2021,01:11:09.61,346.68,-955.08,-83.01,0.18,0.73,-0.91,-171.60,-38.85,-39.75,34.02,118.25,
06/01/2021,01:11:09.62,359.86,-976.56,-100.10,0.55,-0.37,1.65,-171.60,-38.85,-39.75,34.02,118.25,
06/01/2021,01:11:09.62,358.40,-958.50,-96.68,1.52,-3.60,0.49,-170.25,-39.45,-41.40,34.16,118.25,
06/01/2021,01:11:09.63,350.10,-958.01,-106.45,1.04,2.50,2.93,-170.25,-39.45,-41.40,34.02,118.25,
06/01/2021,01:11:09.64,353.52,-967.29,-96.19,0.12,0.98,0.43,-169.95,-39.45,-41.70,33.88,118.25,
06/01/2021,01:11:09.64,366.70,-956.05,-98.63,-0.12,1.71,0.06,-171.60,-40.05,-40.50,34.02,118.25,
06/01/2021,01:11:09.66,354.49,-953.61,-109.38,-0.30,0.30,1.83,-170.10,-40.05,-40.80,34.21,118.25,
06/01/2021,01:11:09.66,369.14,-960.94,-91.80,1.04,-2.80,4.09,-173.55,-39.00,-39.90,33.97,118.25,
06/01/2021,01:11:09.67,361.33,-965.33,-96.68,1.89,-3.60,0.00,-173.55,-39.00,-39.90,34.21,118.25,
06/01/2021,01:11:09.68,335.45,-963.87,-110.84,1.34,1.71,1.46,-169.35,-40.35,-41.10,33.88,118.25,
06/01/2021,01:11:09.68,354.00,-963.87,-103.52,1.40,-2.62,-0.79,-169.35,-40.35,-41.10,33.78,118.25,
06/01/2021,01:11:09.70,359.38,-973.63,-104.98,2.32,0.91,0.61,-172.50,-39.45,-39.90,34.12,118.25,
06/01/2021,01:11:09.70,353.03,-952.64,-93.75,-0.49,1.89,2.07,-170.85,-39.30,-39.75,34.02,118.25,
06/01/2021,01:11:09.71,344.73,-950.68,-100.59,2.13,-0.91,0.91,-170.85,-39.30,-39.75,34.02,118.25,
06/01/2021,01:11:09.72,353.03,-970.70,-100.10,0.98,-0.98,1.89,-170.85,-39.30,-39.75,33.83,118.25,
06/01/2021,01:11:09.72,366.21,-958.98,-95.21,-0.73,2.20,-1.16,-170.85,-39.30,-39.75,33.88,118.25,
06/01/2021,01:11:09.74,363.28,-957.52,-99.12,0.98,-3.48,2.56,-171.15,-40.35,-38.70,34.02,118.25,
06/01/2021,01:11:09.74,354.98,-959.96,-104.00,1.59,-0.30,0.79,-171.15,-40.35,-38.70,34.16,118.25,
06/01/2021,01:11:09.75,346.19,-967.29,-100.10,0.91,-3.29,0.43,-171.15,-40.35,-38.70,33.88,118.25,
06/01/2021,01:11:09.75,359.86,-959.96,-102.54,0.85,0.49,-1.77,-171.90,-37.35,-40.50,34.21,118.25,
06/01/2021,01:11:09.76,354.98,-955.57,-106.93,-1.40,-2.38,-0.06,-171.90,-37.35,-40.50,34.02,118.25,
06/01/2021,01:11:09.78,354.98,-953.61,-113.28,0.85,-0.91,0.24,-170.40,-37.05,-40.80,34.12,118.25,
06/01/2021,01:11:09.78,357.91,-971.19,-95.70,0.18,-1.34,1.59,-172.05,-38.70,-39.60,34.02,118.25,
06/01/2021,01:11:09.83,354.98,-960.94,-104.49,2.32,-1.40,0.06,-172.65,-40.05,-38.25,33.97,118.25,
06/01/2021,01:11:09.85,342.77,-969.24,-97.17,0.12,1.28,1.22,-170.85,-39.60,-38.70,34.02,118.25,
06/01/2021,01:11:09.86,348.63,-975.10,-112.30,0.67,1.22,0.79,-172.95,-40.05,-38.25,33.83,118.25,
06/01/2021,01:11:09.87,345.70,-960.94,-90.82,0.85,0.43,-0.18,-171.60,-1.20,-40.95,34.12,118.24,
06/01/2021,01:11:09.88,354.98,-947.27,-96.19,-0.30,-0.43,-0.18,-171.60,-39.60,-39.00,34.02,118.24,
06/01/2021,01:11:09.88,344.73,-951.66,-103.03,2.80,-2.62,-0.24,-171.30,-39.45,-39.90,33.78,118.25,
06/01/2021,01:11:09.89,353.03,-954.59,-102.05,2.74,0.24,-1.28,-171.30,-39.45,-39.90,33.97,118.25,
06/01/2021,01:11:09.90,354.98,-961.43,-102.05,2.50,0.06,-0.18,-170.85,-38.10,-41.10,34.16,118.25,
06/01/2021,01:11:09.90,347.66,-973.14,-104.00,2.32,-0.67,1.40,-170.85,-38.10,-41.10,33.83,118.25,
06/01/2021,01:11:09.92,342.29,-954.10,-103.03,1.71,1.10,-0.55,-171.60,-38.85,-39.75,34.02,118.25,
06/01/2021,01:11:09.92,351.07,-960.45,-98.14,0.37,-2.07,0.06,-171.00,-38.70,-40.20,34.21,118.25,
06/01/2021,01:11:09.93,352.05,-966.80,-106.93,1.22,-0.98,0.24,-171.00,-38.70,-40.20,34.21,118.25,
06/01/2021,01:11:09.93,344.24,-967.29,-102.54,0.37,-1.16,1.89,-171.00,-38.70,-40.20,33.88,118.25,
06/01/2021,01:11:09.94,349.12,-961.43,-103.03,2.26,1.46,0.18,-171.00,-38.70,-40.20,33.88,118.25,
06/01/2021,01:11:09.96,354.49,-971.19,-100.10,1.16,0.91,1.71,-171.00,-41.70,-39.60,33.97,118.25,
06/01/2021,01:11:09.96,362.79,-966.80,-104.98,1.71,-0.91,-0.18,-171.00,-41.70,-39.60,33.88,118.25,
06/01/2021,01:11:09.97,351.56,-956.54,-80.08,2.01,-1.71,0.37,-171.00,-41.70,-39.60,34.21,118.25,
06/01/2021,01:11:09.97,343.26,-955.57,-110.35,1.77,-0.67,-0.18,-170.40,-38.55,-42.15,34.12,118.25,
06/01/2021,01:11:09.98,368.16,-959.96,-95.70,2.38,-2.01,-1.34,-170.40,-38.55,-42.15,34.02,118.25,
06/01/2021,01:11:09.99,363.28,-959.96,-104.00,1.10,-3.60,-0.67,-169.35,-38.10,-40.05,34.02,118.25,
06/01/2021,01:11:10.00,353.52,-956.05,-98.14,1.22,-0.49,-2.44,-172.50,-40.95,-39.90,34.21,118.25,
06/01/2021,01:11:10.01,359.38,-957.03,-90.33,1.59,-0.85,1.16,-172.50,-40.95,-39.90,34.21,118.25,
06/01/2021,01:11:10.01,354.00,-972.17,-109.38,0.91,-0.67,-0.18,-170.85,-38.55,-42.60,33.78,118.25,
06/01/2021,01:11:10.02,355.47,-958.98,-95.21,1.65,-0.06,-0.98,-170.85,-38.55,-42.60,33.88,118.25,
06/01/2021,01:11:10.03,362.30,-960.45,-99.12,0.00,-1.40,-1.59,-170.85,-39.60,-39.75,33.97,118.25,
06/01/2021,01:11:10.04,336.91,-956.54,-106.45,3.11,-0.30,-2.38,-170.85,-40.05,-38.25,34.02,118.25,
06/01/2021,01:11:10.05,344.24,-953.61,-101.07,0.61,-0.79,-1.34,-170.85,-40.05,-38.25,34.12,118.25,
06/01/2021,01:11:10.05,357.91,-962.89,-88.38,0.67,-2.38,2.99,-171.75,-40.95,-41.70,33.97,118.25,
06/01/2021,01:11:10.06,350.59,-956.54,-97.66,1.16,-2.26,-0.30,-171.75,-40.95,-41.70,34.02,118.25,
06/01/2021,01:11:10.07,349.61,-952.15,-97.66,1.28,2.20,-0.06,-171.15,-40.80,-39.00,34.21,118.25,
06/01/2021,01:11:10.08,345.21,-961.43,-93.26,1.40,0.18,0.85,-171.15,-40.80,-39.00,33.83,118.25,
06/01/2021,01:11:10.09,347.17,-965.33,-103.52,1.10,-0.30,-0.79,-172.50,-40.20,-40.20,33.88,118.25,
06/01/2021,01:11:10.09,346.19,-970.21,-89.84,2.87,0.00,0.06,-172.50,-40.20,-40.20,33.88,118.25,
06/01/2021,01:11:10.10,339.36,-950.20,-97.66,0.24,-0.49,0.61,-172.50,-40.20,-40.20,34.02,118.25,
06/01/2021,01:11:10.10,356.45,-948.73,-103.52,0.85,-1.52,-0.30,-170.40,-39.30,-42.60,34.02,118.25,
06/01/2021,01:11:10.12,346.19,-969.73,-92.29,-0.73,0.85,-0.61,-170.40,-40.05,-41.10,34.12,118.25,
06/01/2021,01:11:10.12,356.45,-962.89,-98.63,1.28,-0.12,-1.16,-170.40,-40.05,-41.10,33.88,118.25,
06/01/2021,01:11:10.13,356.93,-960.94,-97.17,1.04,-0.98,0.12,-168.00,-38.55,-40.50,33.88,118.25,
06/01/2021,01:11:10.14,347.17,-965.82,-98.14,0.49,3.60,-0.43,-168.00,-38.55,-40.50,34.02,118.25,
06/01/2021,01:11:10.14,341.31,-956.54,-97.66,3.11,-0.91,1.28,-170.40,-38.55,-41.85,34.12,118.25,
06/01/2021,01:11:10.16,348.63,-956.54,-92.77,3.60,-0.73,0.98,-170.40,-38.55,-41.85,33.97,118.25,
06/01/2021,01:11:10.16,352.54,-961.91,-97.17,2.01,-0.85,-0.61,-172.05,-40.50,-37.50,33.88,118.25,
06/01/2021,01:11:10.17,349.61,-956.54,-111.33,2.20,-1.59,-0.06,-169.50,-39.75,-41.40,33.88,118.25,
06/01/2021,01:11:10.17,355.96,-965.33,-102.54,2.99,-2.74,-0.06,-169.50,-39.75,-41.40,33.78,118.25,
06/01/2021,01:11:10.18,352.05,-964.36,-93.75,-0.43,-0.91,0.55,-169.50,-39.75,-41.40,34.02,118.25,
06/01/2021,01:11:10.20,347.66,-945.31,-87.40,3.23,-1.22,-1.77,-169.80,-38.85,-40.05,34.12,118.25,
06/01/2021,01:11:10.20,332.03,-959.47,-88.38,-0.55,0.91,-2.07,-171.75,-40.20,-37.80,34.12,118.25,
06/01/2021,01:11:10.21,342.77,-954.10,-107.42,1.59,-1.10,-1.16,-171.15,-38.85,-39.00,33.97,118.25,
06/01/2021,01:11:10.21,351.56,-956.05,-108.40,2.20,-2.07,-1.59,-171.15,-38.85,-39.00,33.64,118.25,
06/01/2021,01:11:10.22,348.63,-957.52,-93.75,2.44,0.00,-1.10,-170.40,-38.85,-40.05,33.83,118.25,
06/01/2021,01:11:10.24,346.19,-956.54,-96.19,1.40,0.06,-4.21,-169.95,-40.20,-40.95,33.88,118.25,
06/01/2021,01:11:10.24,352.05,-958.98,-96.68,0.67,-1.16,-0.67,-172.50,-40.95,-38.10,34.16,118.25,
06/01/2021,01:11:10.25,336.43,-952.15,-102.54,1.10,2.80,1.22,-172.50,-40.95,-38.10,34.21,118.25,
06/01/2021,01:11:10.25,343.75,-967.77,-93.26,1.83,-1.28,-0.18,-170.40,-39.30,-41.10,34.02,118.25,
06/01/2021,01:11:10.26,357.91,-953.12,-101.07,2.13,-1.95,-1.04,-171.00,-38.70,-42.45,34.12,118.25,
06/01/2021,01:11:10.28,345.70,-957.52,-90.82,2.13,-1.34,0.61,-170.85,-40.05,-39.75,34.02,118.25,
06/01/2021,01:11:10.28,356.93,-959.47,-93.26,2.07,-0.79,0.00,-170.85,-40.05,-39.75,34.02,118.25,
06/01/2021,01:11:10.29,348.63,-957.52,-90.82,3.35,-2.56,1.04,-170.85,-40.05,-39.75,33.88,118.25,
06/01/2021,01:11:10.29,360.35,-947.27,-90.82,1.77,-1.16,0.98,-171.15,-39.30,-41.85,33.97,118.25,
06/01/2021,01:11:10.33,352.54,-961.91,-97.17,1.04,0.24,0.98,-172.20,-38.85,-37.65,34.16,118.25,
06/01/2021,01:11:10.35,354.49,-963.87,-100.59,1.71,-2.13,-1.71,-172.20,-38.85,-37.95,34.02,118.25,
06/01/2021,01:11:10.36,349.12,-965.82,-95.21,1.71,-1.89,-1.04,-172.20,-38.85,-37.95,34.02,118.25,
06/01/2021,01:11:10.36,351.07,-948.24,-100.10,2.62,1.46,-2.93,-173.55,-38.70,-40.20,33.78,118.25,
06/01/2021,01:11:10.37,354.98,-960.45,-99.61,2.13,-3.41,0.43,-173.55,-38.70,-40.20,33.88,118.25,
06/01/2021,01:11:10.37,346.68,-960.45,-80.57,2.38,0.61,0.00,-173.55,-38.70,-40.20,34.16,118.25,
06/01/2021,01:11:10.38,362.79,-962.89,-97.17,0.12,-3.17,-0.49,-170.70,-38.25,-41.40,34.12,118.25,
06/01/2021,01:11:10.40,347.17,-961.91,-96.19,1.71,0.18,-1.59,-170.10,-38.10,-41.55,34.12,118.25,
06/01/2021,01:11:10.40,359.86,-963.38,-88.87,0.43,-0.18,-2.38,-172.65,-41.55,-37.95,34.12,118.25,
06/01/2021,01:11:10.41,349.12,-955.08,-98.63,1.04,-0.43,-3.66,-172.65,-41.55,-37.95,34.02,118.25,
06/01/2021,01:11:10.41,344.24,-957.03,-96.19,3.60,-2.74,-1.10,-171.75,-39.00,-42.45,34.02,118.25,
06/01/2021,01:11:10.42,355.47,-959.96,-93.75,1.22,0.55,0.61,-170.10,-38.10,-40.80,34.02,118.25,
06/01/2021,01:11:10.43,356.93,-957.52,-93.75,2.26,-2.68,-2.68,-169.35,-40.35,-39.75,34.12,118.25,
06/01/2021,01:11:10.44,351.07,-957.03,-85.94,0.98,-1.16,-1.65,-172.50,-40.20,-38.55,34.12,118.25,
06/01/2021,01:11:10.45,347.17,-964.36,-100.59,1.10,0.06,-3.23,-172.50,-40.20,-38.55,33.88,118.25,
06/01/2021,01:11:10.45,360.84,-965.82,-95.70,2.07,-0.73,-0.98,-170.85,-38.10,-41.10,33.78,118.25,
06/01/2021,01:11:10.46,353.03,-953.61,-86.91,2.44,0.61,0.12,-171.15,-39.30,-40.50,33.83,118.25,
06/01/2021,01:11:10.47,345.70,-962.40,-86.43,1.34,-0.06,-0.30,-170.25,-39.75,-39.60,33.83,118.25,
06/01/2021,01:11:10.48,348.63,-955.08,-76.17,3.35,0.79,-1.16,-173.25,-38.70,-38.10,33.83,118.25,
06/01/2021,01:11:10.49,355.96,-959.96,-93.75,1.89,-0.85,0.43,-173.25,-38.70,-38.10,34.02,118.25,
06/01/2021,01:11:10.49,355.96,-956.05,-90.82,1.22,0.49,-0.85,-171.60,-38.10,-40.80,33.97,118.25,
06/01/2021,01:11:10.50,350.59,-959.96,-93.26,2.38,-2.07,-1.77,-171.60,-38.10,-40.80,34.02,118.25,
06/01/2021,01:11:10.51,357.42,-959.47,-79.59,2.87,0.98,-1.10,-171.15,-41.10,-38.25,34.02,118.25,
06/01/2021,01:11:10.52,357.91,-963.38,-99.61,-0.12,-0.79,-0.12,-171.90,-39.30,-38.70,33.97,118.25,
06/01/2021,01:11:10.53,350.59,-959.96,-93.75,1.52,0.12,-2.68,-171.90,-39.30,-38.70,33.88,118.25,
06/01/2021,01:11:10.53,346.68,-971.19,-90.33,2.20,-1.10,-2.62,-171.90,-39.30,-38.70,34.02,118.25,
06/01/2021,01:11:10.54,353.52,-957.03,-104.49,0.18,1.46,0.37,-171.30,-37.95,-39.60,34.12,118.25,
06/01/2021,01:11:10.55,337.89,-968.26,-84.47,2.74,0.37,0.00,-170.25,-39.45,-39.90,34.12,118.25,
06/01/2021,01:11:10.56,350.10,-965.33,-87.89,2.32,1.71,-1.34,-170.25,-39.45,-39.90,34.12,118.25,
06/01/2021,01:11:10.57,352.05,-950.68,-79.59,1.89,-0.67,-1.10,-170.25,-39.45,-39.90,33.97,118.25,
06/01/2021,01:11:10.57,354.00,-951.17,-88.87,-1.28,-0.18,-1.28,-169.80,-39.30,-41.10,33.88,118.25,
06/01/2021,01:11:10.58,355.47,-956.54,-93.75,0.73,-1.34,-2.01,-170.25,-39.45,-40.20,33.97,118.25,
06/01/2021,01:11:10.58,344.73,-955.57,-95.70,2.26,0.37,-0.91,-170.25,-39.45,-40.20,33.78,118.25,
06/01/2021,01:11:10.60,355.47,-955.08,-84.96,1.89,-1.10,-0.30,-170.70,-39.75,-39.60,34.02,118.25,
06/01/2021,01:11:10.60,354.00,-948.73,-87.89,-0.24,0.73,-0.12,-170.70,-39.75,-39.60,33.97,118.25,
06/01/2021,01:11:10.61,361.33,-956.54,-85.45,2.93,-3.72,0.00,-172.80,-37.95,-39.15,34.02,118.25,
06/01/2021,01:11:10.62,358.89,-957.03,-83.98,2.99,-0.55,-2.44,-170.40,-37.80,-42.15,34.12,118.25,
06/01/2021,01:11:10.62,348.14,-956.54,-89.36,2.80,-0.67,1.89,-170.40,-37.80,-42.15,34.12,118.25,
06/01/2021,01:11:10.64,359.38,-948.24,-82.03,1.89,0.98,-1.28,-172.50,-39.75,-39.60,33.83,118.25,
06/01/2021,01:11:10.64,351.56,-951.66,-87.89,2.44,-0.73,0.91,-172.50,-39.75,-39.60,33.83,118.25,
06/01/2021,01:11:10.65,359.38,-962.89,-88.38,1.95,1.52,-0.12,-172.50,-40.20,-40.65,34.02,118.25,
06/01/2021,01:11:10.66,350.59,-961.43,-87.89,1.04,-2.20,-0.37,-172.50,-40.20,-40.65,33.97,118.25,
06/01/2021,01:11:10.66,355.47,-952.15,-97.66,0.37,0.06,0.00,-170.70,-39.00,-40.95,34.12,118.25,
06/01/2021,01:11:10.68,366.21,-958.50,-83.50,1.89,0.06,-0.85,-172.05,-39.75,-39.15,34.12,118.25,
06/01/2021,01:11:10.68,367.68,-953.12,-81.05,2.87,-4.02,-1.04,-172.05,-39.75,-39.15,34.12,118.25,
06/01/2021,01:11:10.69,359.86,-958.50,-93.75,2.87,-2.87,1.22,-172.05,-39.75,-39.15,33.78,118.25,
06/01/2021,01:11:10.69,357.42,-952.64,-88.38,0.79,-1.83,-0.91,-172.05,-39.75,-39.15,34.02,118.25,
06/01/2021,01:11:10.70,358.40,-954.59,-86.91,0.98,1.28,-0.30,-172.20,-40.35,-40.50,33.83,118.25,
06/01/2021,01:11:10.72,360.84,-958.50,-87.40,3.78,-2.50,-0.61,-169.05,-38.10,-40.80,34.02,118.25,
06/01/2021,01:11:10.72,349.12,-967.29,-88.38,1.89,-1.34,3.05,-169.05,-38.10,-40.80,33.88,118.25,
06/01/2021,01:11:10.73,342.77,-962.89,-92.29,1.40,-1.89,2.07,-171.75,-39.00,-39.90,34.02,118.25,
06/01/2021,01:11:10.73,359.38,-960.94,-91.80,1.22,-1.28,3.41,-171.75,-39.00,-39.90,34.02,118.25,
06/01/2021,01:11:10.74,350.10,-965.33,-92.29,1.10,1.10,-3.72,-169.20,-37.95,-41.40,33.83,118.25,
06/01/2021,01:11:10.76,364.26,-948.24,-85.45,2.50,0.24,-0.37,-169.20,-37.95,-41.40,33.97,118.25,
06/01/2021,01:11:10.76,349.61,-944.34,-94.24,1.71,0.67,-0.49,-170.85,-39.60,-39.45,34.12,118.25,
06/01/2021,01:11:10.77,362.79,-964.84,-93.75,2.32,-2.56,-1.65,-171.30,-39.45,-40.65,33.97,118.25,
06/01/2021,01:11:10.77,350.10,-947.27,-92.77,1.34,-0.12,-0.49,-171.30,-39.45,-40.65,34.12,118.25,
06/01/2021,01:11:10.78,360.84,-958.98,-89.84,1.22,-0.37,1.71,-171.30,-39.45,-40.65,34.21,118.25,
06/01/2021,01:11:10.78,351.56,-955.57,-83.01,1.65,-1.59,-0.49,-171.30,-39.45,-40.65,34.12,118.25,
06/01/2021,01:11:10.80,355.96,-962.40,-89.84,-0.37,-0.79,-0.43,-172.95,-39.60,-38.70,33.97,118.25,
06/01/2021,01:11:10.83,370.61,-965.82,-97.17,0.55,0.00,-0.49,-173.40,-41.85,-38.70,33.78,118.25,
06/01/2021,01:11:10.85,365.23,-962.89,-92.29,2.01,2.20,-0.18,-172.05,-40.95,-37.50,34.16,118.25,
06/01/2021,01:11:10.85,352.05,-963.87,-82.52,0.85,2.20,0.30,-172.05,-40.95,-37.50,33.88,118.25,
06/01/2021,01:11:10.86,369.63,-958.50,-101.56,2.68,-4.51,2.38,-171.60,-38.55,-40.80,34.16,118.25,
06/01/2021,01:11:10.87,342.29,-959.47,-101.56,1.71,-5.00,-0.98,-170.70,-38.70,-39.90,34.02,118.25,
06/01/2021,01:11:10.88,351.56,-965.82,-88.38,1.95,0.61,1.52,-170.70,-38.70,-39.90,33.88,118.25,
06/01/2021,01:11:10.89,356.45,-972.17,-83.01,1.83,-0.49,-1.16,-170.10,-38.10,-40.05,34.02,118.25,
06/01/2021,01:11:10.89,349.12,-952.15,-104.49,0.43,-1.71,-0.18,-170.10,-38.10,-40.05,34.02,118.25,
06/01/2021,01:11:10.90,346.19,-969.73,-106.45,2.26,-1.10,-0.98,-170.70,-38.70,-40.95,33.97,118.25,
06/01/2021,01:11:10.91,353.52,-958.50,-93.26,2.20,0.06,1.34,-170.70,-38.70,-40.95,33.88,118.25,
06/01/2021,01:11:10.92,365.23,-956.54,-87.89,0.24,1.04,-0.79,-171.15,-39.60,-39.00,34.16,118.25,
06/01/2021,01:11:10.93,356.45,-964.84,-92.29,0.18,0.37,-1.04,-170.25,-39.45,-42.00,33.88,118.25,
06/01/2021,01:11:10.93,349.12,-961.43,-102.54,0.37,-4.27,-0.73,-170.25,-39.45,-42.00,34.02,118.25,
06/01/2021,01:11:10.94,341.80,-951.17,-105.47,0.85,-0.98,-1.10,-170.25,-39.45,-42.00,33.97,118.25,
06/01/2021,01:11:10.95,355.96,-963.87,-101.07,-0.06,-0.37,1.40,-170.25,-38.70,-39.90,34.12,118.25,
06/01/2021,01:11:10.96,345.70,-966.80,-86.43,0.49,-1.10,-0.43,-173.40,-40.35,-39.45,34.31,118.25,
06/01/2021,01:11:10.97,339.36,-961.91,-98.14,-0.24,-2.13,1.46,-169.80,-39.60,-40.50,34.31,118.25,
06/01/2021,01:11:10.97,343.75,-956.54,-92.29,0.55,-1.34,-0.24,-169.80,-39.60,-40.50,34.21,118.25,
06/01/2021,01:11:10.98,339.84,-968.26,-87.40,-1.10,0.73,-1.10,-171.60,-39.60,-39.45,33.97,118.25,
06/01/2021,01:11:10.99,360.35,-958.98,-103.52,-0.30,1.46,1.89,-170.25,-37.95,-40.95,34.21,118.25,
06/01/2021,01:11:11.00,349.61,-958.50,-92.29,1.04,-1.65,-0.43,-171.90,-39.30,-37.95,34.12,118.25,
06/01/2021,01:11:11.00,340.82,-955.08,-88.38,1.46,-2.01,0.67,-170.70,-39.00,-39.60,33.88,118.25,
06/01/2021,01:11:11.01,353.52,-956.54,-96.19,-0.37,0.43,1.28,-170.70,-39.00,-39.60,33.88,118.25,
06/01/2021,01:11:11.02,339.84,-962.40,-85.94,0.98,0.67,-0.55,-170.70,-39.75,-39.90,34.21,118.25,
06/01/2021,01:11:11.02,343.26,-967.77,-95.70,0.61,-0.24,-0.79,-170.70,-39.75,-39.90,34.02,118.25,
06/01/2021,01:11:11.04,343.26,-958.01,-90.82,0.37,-1.16,0.61,-171.90,-38.85,-40.50,34.02,118.25,
06/01/2021,01:11:11.04,348.14,-960.94,-84.47,-0.61,0.18,0.37,-172.80,-39.75,-40.65,33.88,118.25,
06/01/2021,01:11:11.05,351.07,-959.96,-88.87,1.34,-0.91,1.95,-172.80,-39.75,-40.65,33.83,118.25,
06/01/2021,01:11:11.06,345.70,-962.40,-88.38,-0.43,-1.89,-0.91,-171.00,-39.45,-41.40,33.88,118.25,
06/01/2021,01:11:11.06,348.63,-969.24,-88.38,0.24,-0.18,2.68,-171.00,-39.45,-41.40,34.16,118.25,
06/01/2021,01:11:11.08,343.75,-967.29,-96.68,1.59,0.24,1.52,-172.20,-40.05,-39.00,34.12,118.25,
06/01/2021,01:11:11.08,357.42,-956.54,-92.29,-0.37,-1.46,1.34,-173.25,-39.45,-38.85,34.12,118.25,
06/01/2021,01:11:11.09,340.82,-959.47,-99.12,-1.77,0.30,-0.30,-173.25,-39.45,-38.85,33.97,118.25,
06/01/2021,01:11:11.09,345.70,-958.50,-77.64,0.06,-1.22,-0.85,-173.25,-39.45,-38.85,33.97,118.25,
06/01/2021,01:11:11.10,347.17,-967.77,-86.91,0.67,-2.99,-2.07,-173.25,-39.45,-38.85,34.16,118.25,
06/01/2021,01:11:11.12,345.21,-957.52,-86.91,0.30,-1.95,1.89,-172.50,-39.00,-40.20,33.88,118.25,
06/01/2021,01:11:11.12,358.89,-957.52,-91.31,0.73,0.49,1.40,-172.50,-39.00,-40.20,33.88,118.25,
06/01/2021,01:11:11.13,356.93,-961.91,-89.84,-0.37,-0.61,0.00,-172.50,-39.00,-40.20,33.97,118.25,
06/01/2021,01:11:11.13,349.12,-946.29,-91.31,0.98,-2.26,1.28,-171.30,-39.75,-39.90,33.88,118.25,
06/01/2021,01:11:11.14,353.03,-957.03,-89.84,0.00,-0.18,-0.67,-171.30,-39.75,-39.90,34.02,118.25,
06/01/2021,01:11:11.16,363.77,-948.24,-95.70,0.91,-2.74,0.55,-171.90,-39.60,-38.70,34.12,118.25,
06/01/2021,01:11:11.16,345.70,-957.52,-76.66,1.34,-0.12,0.24,-171.90,-39.60,-38.70,34.21,118.25,
06/01/2021,01:11:11.17,345.70,-953.61,-81.05,-0.37,-0.85,1.10,-171.60,-39.60,-39.45,34.12,118.25,
06/01/2021,01:11:11.17,357.42,-961.91,-81.54,1.16,0.61,-0.24,-170.40,-38.85,-41.10,34.02,118.25,
06/01/2021,01:11:11.18,350.59,-961.91,-91.31,0.30,-0.67,2.80,-170.40,-38.85,-41.10,34.02,118.25,
06/01/2021,01:11:11.19,354.00,-950.68,-93.75,0.55,-0.37,-0.18,-172.05,-39.00,-39.60,34.02,118.25,
06/01/2021,01:11:11.20,351.07,-962.89,-101.07,-1.59,-2.01,-1.16,-172.05,-39.00,-39.60,33.88,118.25,
06/01/2021,01:11:11.21,351.07,-955.57,-87.89,0.12,-2.32,2.26,-171.15,-38.55,-40.80,33.97,118.25,
06/01/2021,01:11:11.21,361.82,-961.43,-92.29,0.43,2.32,-0.30,-171.30,-39.00,-40.65,34.02,118.25,
06/01/2021,01:11:11.22,346.68,-958.50,-89.84,1.22,-3.90,0.43,-171.30,-39.00,-40.65,34.12,118.25,
06/01/2021,01:11:11.22,340.82,-948.24,-97.17,-1.52,0.61,1.22,-171.30,-39.00,-40.65,34.02,118.25,
06/01/2021,01:11:11.24,348.63,-956.05,-86.91,2.68,-0.18,1.77,-169.95,-38.25,-40.20,33.88,118.25,
06/01/2021,01:11:11.25,343.26,-956.54,-93.75,-0.18,-4.76,1.59,-173.25,-40.50,-37.05,33.97,118.25,
06/01/2021,01:11:11.25,342.77,-966.31,-85.45,0.43,-0.85,-1.52,-173.25,-40.50,-37.05,34.02,118.25,
06/01/2021,01:11:11.26,356.93,-955.08,-100.10,-0.79,-6.34,-0.06,-173.25,-40.50,-37.05,34.12,118.25,
06/01/2021,01:11:11.26,352.54,-964.36,-85.45,-1.83,-1.89,0.49,-171.15,-38.85,-40.05,34.02,118.25,
06/01/2021,01:11:11.28,341.80,-950.68,-91.80,1.65,-0.37,1.89,-169.35,-39.30,-40.05,34.21,118.25,
06/01/2021,01:11:11.29,343.75,-967.29,-104.49,-2.26,-1.77,2.26,-169.35,-39.30,-40.05,34.12,118.25,
06/01/2021,01:11:11.29,355.96,-960.45,-91.31,-0.43,-2.74,0.24,-169.35,-39.30,-41.10,34.02,118.25,
06/01/2021,01:11:11.30,359.38,-943.85,-85.45,0.30,-2.62,4.27,-169.35,-39.30,-41.10,34.02,118.25,
06/01/2021,01:11:11.30,346.19,-954.59,-97.66,-1.59,0.61,-2.38,-171.15,-39.60,-39.00,33.97,118.25,
06/01/2021,01:11:11.35,350.59,-962.40,-85.94,-1.16,-2.38,0.91,-172.80,-41.25,-38.85,33.88,118.25,
06/01/2021,01:11:11.36,348.14,-949.22,-89.36,0.00,-3.23,-0.79,-172.20,-40.35,-39.45,34.21,118.25,
06/01/2021,01:11:11.37,357.91,-967.77,-96.68,1.71,-4.70,-1.34,-172.20,-40.35,-39.45,33.97,118.25,
06/01/2021,01:11:11.37,352.05,-974.12,-81.54,-0.67,-3.84,0.30,-169.80,-38.85,-41.10,34.12,118.25,
06/01/2021,01:11:11.38,359.86,-963.38,-87.89,-1.40,-2.87,1.40,-169.80,-38.85,-41.10,33.64,118.25,
06/01/2021,01:11:11.39,351.07,-962.89,-99.12,-0.49,-1.22,-1.89,-171.60,-40.05,-39.45,34.12,118.25,
06/01/2021,01:11:11.40,344.24,-958.50,-100.59,1.59,-0.55,0.91,-171.60,-40.05,-39.45,34.16,118.25,
06/01/2021,01:11:11.41,351.56,-955.57,-105.96,0.55,0.06,0.85,-170.70,-37.95,-40.20,34.02,118.25,
06/01/2021,01:11:11.41,352.54,-954.59,-88.38,-2.26,-0.61,-2.38,-170.70,-37.95,-40.20,33.68,118.25,
06/01/2021,01:11:11.42,349.61,-963.87,-101.56,1.65,-0.91,-0.49,-170.70,-37.95,-40.20,34.02,118.25,
06/01/2021,01:11:11.43,349.12,-958.50,-95.70,1.40,-0.61,0.18,-171.75,-39.45,-38.55,33.83,118.25,
06/01/2021,01:11:11.44,353.52,-948.73,-85.94,-0.91,-0.37,0.24,-171.75,-39.45,-38.55,33.88,118.25,
06/01/2021,01:11:11.45,354.00,-954.59,-81.54,-0.18,-1.59,-0.73,-171.75,-39.45,-38.55,33.97,118.25,
06/01/2021,01:11:11.45,345.21,-951.66,-91.31,-0.73,-1.16,1.83,-172.05,-39.45,-38.55,33.83,118.25,
06/01/2021,01:11:11.46,357.91,-954.59,-96.68,0.73,-2.62,-1.89,-172.05,-39.45,-38.55,34.36,118.25,
06/01/2021,01:11:11.47,358.40,-961.91,-81.05,0.61,-2.62,-1.22,-171.90,-39.30,-42.15,34.12,118.25,
06/01/2021,01:11:11.48,348.14,-958.01,-81.05,1.65,-1.71,0.37,-171.90,-39.30,-42.15,34.02,118.25,
06/01/2021,01:11:11.49,351.07,-953.12,-87.89,0.12,0.30,-1.46,-171.75,-38.25,-40.65,34.02,118.25,
06/01/2021,01:11:11.49,351.56,-961.43,-87.40,0.43,-2.87,1.59,-169.95,-39.00,-41.40,33.97,118.25,
06/01/2021,01:11:11.50,354.98,-953.61,-85.94,0.61,-0.37,-3.60,-169.95,-39.00,-41.40,34.02,118.25,
06/01/2021,01:11:11.50,344.73,-956.54,-98.14,-0.18,-1.83,-1.46,-169.95,-39.00,-41.40,33.97,118.25,
06/01/2021,01:11:11.52,350.59,-950.20,-98.14,0.91,-1.46,-2.56,-171.30,-37.95,-40.65,34.16,118.25,
06/01/2021,01:11:11.52,358.40,-944.82,-99.61,0.06,-1.40,-2.62,-172.50,-41.70,-38.85,34.12,118.25,
06/01/2021,01:11:11.53,348.14,-963.38,-93.26,0.30,0.61,-2.01,-170.85,-38.55,-40.80,34.21,118.25,
06/01/2021,01:11:11.54,353.52,-945.80,-81.54,-0.67,-0.12,-1.40,-170.85,-38.55,-40.80,33.88,118.25,
06/01/2021,01:11:11.54,354.98,-949.22,-85.94,1.22,-2.87,-3.11,-170.40,-38.85,-42.15,33.88,118.25,
06/01/2021,01:11:11.56,365.72,-959.47,-96.68,0.79,-1.77,0.43,-169.80,-40.05,-40.50,34.02,118.25,
06/01/2021,01:11:11.56,347.66,-957.03,-97.17,0.85,1.10,-2.99,-172.50,-42.45,-38.55,34.16,118.25,
06/01/2021,01:11:11.57,354.49,-947.27,-84.96,0.49,-2.62,-0.43,-172.50,-42.45,-38.55,34.02,118.25,
06/01/2021,01:11:11.58,344.24,-963.38,-92.29,0.98,-3.84,-1.04,-172.50,-42.45,-38.55,34.02,118.25,
06/01/2021,01:11:11.58,357.42,-957.03,-92.77,0.37,-1.34,-1.52,-170.40,-40.05,-40.50,33.97,118.25,
06/01/2021,01:11:11.60,352.54,-962.89,-99.61,1.77,-3.41,-0.79,-172.65,-40.05,-41.10,34.02,118.25,
06/01/2021,01:11:11.60,360.84,-958.50,-100.59,3.29,-1.89,0.00,-172.65,-40.05,-41.10,34.02,118.25,
06/01/2021,01:11:11.61,364.26,-953.12,-93.26,0.49,-1.04,-2.99,-172.65,-40.05,-41.10,33.83,118.25,
06/01/2021,01:11:11.61,355.96,-955.57,-99.61,0.61,-1.65,-2.50,-170.25,-39.00,-40.95,34.02,118.25,
06/01/2021,01:11:11.62,352.05,-959.47,-95.21,1.83,-1.40,-0.61,-170.40,-39.60,-41.10,34.21,118.25,
06/01/2021,01:11:11.64,361.33,-951.66,-94.73,0.91,-2.74,0.43,-170.40,-39.60,-41.10,34.02,118.25,
06/01/2021,01:11:11.64,353.52,-962.89,-87.40,1.95,-1.89,0.24,-173.25,-39.00,-39.90,33.83,118.25,
06/01/2021,01:11:11.65,348.14,-960.94,-99.12,1.89,0.24,0.24,-173.25,-39.00,-39.90,34.12,118.25,
06/01/2021,01:11:11.65,349.61,-959.96,-93.26,0.98,-0.12,-1.71,-170.85,-39.30,-41.10,33.88,118.25,
06/01/2021,01:11:11.66,360.35,-964.36,-98.14,1.16,-1.46,-2.87,-170.85,-39.30,-41.10,33.83,118.25,
06/01/2021,01:11:11.68,351.56,-960.94,-101.56,1.71,-0.43,-1.46,-171.30,-39.75,-40.95,34.12,118.25,
06/01/2021,01:11:11.68,352.54,-955.08,-104.49,0.85,-1.59,-2.38,-171.00,-40.20,-38.10,33.88,118.25,
06/01/2021,01:11:11.69,350.59,-958.01,-97.66,-0.06,-1.95,-2.62,-171.00,-40.20,-38.10,33.83,118.25,
06/01/2021,01:11:11.69,357.42,-962.89,-100.59,0.18,-1.34,-0.98,-169.50,-39.45,-40.65,33.68,118.25,
06/01/2021,01:11:11.70,360.35,-955.57,-100.10,0.30,0.00,-1.59,-170.70,-38.70,-40.20,33.97,118.25,
06/01/2021,01:11:11.72,345.70,-960.94,-104.98,2.07,1.59,-1.52,-170.25,-41.25,-39.90,33.83,118.25,
06/01/2021,01:11:11.72,350.59,-951.17,-101.56,1.77,-2.50,-2.01,-171.15,-40.05,-39.45,34.16,118.25,
06/01/2021,01:11:11.73,343.75,-960.94,-110.35,1.59,-1.52,-3.48,-171.15,-40.05,-39.45,34.21,118.25,
06/01/2021,01:11:11.73,350.59,-952.64,-109.38,2.26,-1.89,-2.56,-169.50,-39.00,-40.95,34.02,118.25,
06/01/2021,01:11:11.74,351.07,-964.84,-109.38,0.73,-2.56,-2.74,-170.10,-39.30,-41.10,33.88,118.25,
06/01/2021,01:11:11.75,345.70,-958.98,-122.07,0.55,0.30,-0.30,-170.10,-39.30,-41.10,34.12,118.25,
06/01/2021,01:11:11.76,340.82,-960.45,-96.19,-0.18,-1.77,-1.83,-169.20,-38.25,-40.95,33.88,118.25,
06/01/2021,01:11:11.77,345.70,-963.87,-108.40,0.49,-0.18,-0.18,-169.20,-38.25,-40.95,33.88,118.25,
06/01/2021,01:11:11.77,343.75,-954.10,-103.52,2.50,-1.22,-3.78,-170.70,-39.00,-39.60,33.88,118.25,
06/01/2021,01:11:11.78,343.26,-949.22,-103.52,2.32,-2.74,-3.96,-170.85,-38.85,-41.85,34.02,118.25,
06/01/2021,01:11:11.78,345.21,-958.50,-113.77,-0.49,0.24,0.06,-170.85,-38.85,-41.85,33.83,118.25,
06/01/2021,01:11:11.80,346.19,-952.64,-98.63,0.24,-1.22,-0.98,-171.15,-39.60,-39.00,33.88,118.25,
06/01/2021,01:11:11.81,354.49,-948.73,-116.21,0.61,-0.67,0.37,-171.15,-39.60,-39.00,33.88,118.25,
06/01/2021,01:11:11.81,339.36,-965.82,-102.54,0.55,-1.95,-1.89,-171.15,-38.55,-40.05,34.12,118.25,
06/01/2021,01:11:11.82,343.75,-954.59,-101.56,0.43,-0.67,-1.59,-171.15,-38.55,-40.05,34.12,118.25,
06/01/2021,01:11:11.82,364.26,-957.03,-97.66,-0.24,-0.06,-0.49,-171.15,-38.55,-40.05,34.02,118.25,
06/01/2021,01:11:11.87,351.56,-962.89,-98.63,-0.55,-2.20,-1.10,-172.20,-38.55,-39.45,33.83,118.25,
06/01/2021,01:11:11.88,350.10,-958.98,-98.14,0.37,-1.34,0.06,-172.20,-39.30,-40.05,34.02,118.25,
06/01/2021,01:11:11.89,357.42,-940.92,-94.73,-0.30,-2.74,-2.07,-172.20,-39.30,-40.05,34.16,118.25,
06/01/2021,01:11:11.89,359.38,-959.96,-107.42,-0.37,0.43,2.62,-171.90,-39.30,-39.00,33.88,118.25,
06/01/2021,01:11:11.90,360.35,-954.59,-92.29,-1.65,0.24,1.04,-169.95,-39.75,-40.20,34.02,118.25,
06/01/2021,01:11:11.91,356.93,-963.38,-101.07,1.22,-3.17,1.28,-170.85,-38.85,-41.55,33.78,118.25,
06/01/2021,01:11:11.92,352.54,-955.57,-98.63,1.34,-0.85,-0.67,-170.70,-39.75,-39.15,34.02,118.25,
06/01/2021,01:11:11.93,361.82,-969.24,-99.61,0.67,0.06,2.20,-170.70,-39.75,-39.15,34.12,118.25,
06/01/2021,01:11:11.93,350.10,-960.94,-94.73,0.91,-2.07,-1.04,-170.70,-38.70,-41.40,33.88,118.25,
06/01/2021,01:11:11.94,350.10,-963.87,-97.17,1.22,-6.28,1.16,-170.70,-37.95,-41.70,34.02,118.25,
06/01/2021,01:11:11.95,357.91,-955.57,-101.56,0.49,0.24,-0.85,-170.70,-37.95,-41.70,33.97,118.25,
06/01/2021,01:11:11.96,348.14,-959.96,-89.36,0.61,0.00,-0.37,-173.25,-39.75,-39.15,34.02,118.25,
06/01/2021,01:11:11.97,348.14,-963.87,-94.24,0.00,-1.95,1.16,-173.25,-39.75,-39.15,34.31,118.25,
06/01/2021,01:11:11.97,369.14,-952.15,-85.45,2.20,-0.49,0.00,-169.20,-40.20,-41.40,33.88,118.25,
06/01/2021,01:11:11.98,354.00,-953.12,-89.84,1.22,-1.59,0.06,-169.20,-40.20,-41.40,34.02,118.25,
06/01/2021,01:11:11.99,345.21,-943.36,-97.17,0.30,0.30,0.06,-170.85,-40.05,-39.00,33.97,118.25,
06/01/2021,01:11:12.00,356.45,-957.52,-92.77,-0.18,0.98,-1.16,-173.85,-39.45,-38.85,34.21,118.25,
06/01/2021,01:11:12.01,353.03,-953.12,-104.49,0.49,-0.61,-0.30,-173.85,-39.45,-38.85,34.12,118.25,
06/01/2021,01:11:12.01,354.49,-963.38,-92.77,-2.32,1.71,-0.73,-173.85,-39.45,-38.85,33.83,118.25,
06/01/2021,01:11:12.02,364.26,-958.50,-109.38,0.12,0.37,-1.77,-170.40,-39.30,-40.50,34.16,118.25,
06/01/2021,01:11:12.02,349.61,-954.10,-98.14,-0.18,0.61,1.16,-170.40,-39.30,-40.50,34.02,118.25,
06/01/2021,01:11:12.04,347.66,-955.08,-110.84,1.46,-2.50,-1.16,-170.85,-38.85,-39.45,33.83,118.25,
06/01/2021,01:11:12.04,356.93,-963.87,-83.98,-0.12,0.91,-0.73,-170.85,-38.85,-39.45,33.88,118.25,
06/01/2021,01:11:12.05,348.14,-943.85,-96.68,0.37,1.22,-0.37,-172.20,-39.30,-40.50,34.02,118.25,
06/01/2021,01:11:12.06,346.68,-961.43,-103.52,0.85,-1.28,-1.40,-170.25,-39.45,-42.00,33.83,118.25,
06/01/2021,01:11:12.06,349.61,-962.89,-99.12,1.28,-1.34,0.00,-170.25,-39.45,-42.00,34.02,118.25,
06/01/2021,01:11:12.08,353.52,-961.43,-93.75,2.13,0.43,1.22,-171.15,-39.60,-40.80,34.12,118.25,
06/01/2021,01:11:12.08,347.17,-969.24,-93.75,0.18,1.28,1.04,-171.15,-39.60,-40.80,34.02,118.25,
06/01/2021,01:11:12.09,346.68,-950.20,-102.05,2.20,-0.67,-0.24,-171.75,-39.75,-40.95,33.88,118.25,
06/01/2021,01:11:12.10,354.49,-957.52,-93.75,1.71,2.44,0.55,-170.40,-41.10,-40.50,34.02,118.25,
06/01/2021,01:11:12.10,361.33,-965.82,-95.70,0.06,-0.12,-1.04,-170.40,-41.10,-40.50,34.31,118.25,
06/01/2021,01:11:12.12,346.68,-962.89,-91.80,0.55,-0.37,1.10,-171.60,-39.30,-40.05,34.02,118.25,
06/01/2021,01:11:12.12,345.70,-967.77,-88.87,2.32,1.65,1.22,-171.60,-39.30,-40.05,33.88,118.25,
06/01/2021,01:11:12.13,353.03,-968.75,-103.03,-0.67,0.00,0.67,-170.25,-37.95,-39.90,34.02,118.25,
06/01/2021,01:11:12.13,359.38,-956.54,-94.24,2.62,-0.06,1.04,-170.25,-37.95,-39.90,34.21,118.25,
06/01/2021,01:11:12.14,345.21,-958.98,-94.24,0.67,0.61,0.61,-170.25,-37.95,-39.90,34.02,118.25,
06/01/2021,01:11:12.16,360.84,-958.50,-97.17,-1.65,2.26,0.37,-171.75,-39.00,-39.60,34.02,118.25,
06/01/2021,01:11:12.16,351.56,-962.40,-93.75,0.98,0.00,-0.37,-171.75,-39.00,-39.60,34.16,118.25,
06/01/2021,01:11:12.17,339.36,-956.05,-101.07,1.16,1.22,-0.85,-171.75,-39.00,-39.60,33.88,118.25,
06/01/2021,01:11:12.17,353.52,-948.73,-98.14,0.55,-0.91,-0.98,-171.75,-39.00,-39.60,33.83,118.25,
06/01/2021,01:11:12.18,356.45,-943.85,-106.93,1.52,2.99,0.06,-169.35,-39.30,-40.05,33.83,118.25,
06/01/2021,01:11:12.19,347.66,-964.84,-95.70,0.98,0.67,0.79,-171.90,-40.80,-41.55,34.02,118.25,
06/01/2021,01:11:12.20,343.26,-961.91,-103.52,1.04,1.28,-0.79,-171.90,-40.80,-41.55,33.83,118.25,
06/01/2021,01:11:12.21,347.66,-963.38,-92.29,0.79,0.00,2.01,-170.25,-39.00,-40.95,34.31,118.25,
06/01/2021,01:11:12.21,354.98,-960.45,-107.91,1.22,-1.40,-0.49,-170.25,-39.00,-40.95,34.02,118.25,
06/01/2021,01:11:12.22,350.10,-947.75,-97.17,-0.43,-0.24,-1.52,-170.85,-38.55,-41.85,33.68,118.25,
06/01/2021,01:11:12.22,349.61,-959.96,-113.28,0.98,0.18,-0.91,-170.70,-38.70,-41.85,34.02,118.25,
06/01/2021,01:11:12.24,348.63,-958.01,-96.68,0.85,-0.85,-0.37,-171.75,-39.45,-39.15,34.12,118.25,
06/01/2021,01:11:12.25,360.35,-955.08,-106.93,1.89,0.85,0.49,-173.85,-40.50,-39.15,34.02,118.25,
06/01/2021,01:11:12.25,348.14,-956.54,-97.66,3.54,-0.91,-0.61,-173.85,-40.50,-39.15,34.16,118.25,
06/01/2021,01:11:12.26,354.98,-964.36,-97.66,1.46,0.85,2.01,-171.00,-39.45,-39.60,33.97,118.25,
06/01/2021,01:11:12.26,353.03,-964.84,-103.52,-0.18,-0.91,1.16,-171.00,-39.45,-39.60,33.88,118.25,
06/01/2021,01:11:12.28,368.16,-960.45,-103.03,1.22,1.28,1.59,-172.05,-39.00,-41.40,34.02,118.25,
06/01/2021,01:11:12.29,356.45,-959.96,-119.14,2.87,1.71,1.16,-171.60,-39.30,-39.45,34.02,118.25,
06/01/2021,01:11:12.29,342.77,-947.27,-102.54,1.10,-0.67,-0.24,-171.60,-39.30,-39.45,33.97,118.25,
06/01/2021,01:11:12.30,344.73,-961.43,-106.93,1.46,0.91,3.84,-171.60,-39.30,-39.45,34.21,118.25,
06/01/2021,01:11:12.30,359.86,-960.45,-109.86,1.28,-2.26,-0.49,-171.60,-39.30,-39.45,34.02,118.25,
06/01/2021,01:11:12.32,360.35,-953.12,-102.05,1.40,0.79,-1.10,-171.15,-40.35,-39.00,34.02,118.25,
06/01/2021,01:11:12.32,360.84,-957.52,-111.33,-0.73,2.56,1.83,-171.15,-40.35,-39.00,33.88,118.25,
06/01/2021,01:11:12.33,362.79,-958.50,-96.68,2.44,-4.02,0.06,-171.15,-40.35,-39.00,34.16,118.25,
06/01/2021,01:11:12.34,365.23,-966.31,-98.14,0.85,0.06,-0.55,-171.30,-38.70,-40.95,33.88,118.25,
06/01/2021,01:11:12.34,350.10,-967.29,-110.84,2.32,0.24,-0.18,-171.30,-38.70,-40.95,33.88,118.25,
06/01/2021,01:11:12.39,347.66,-958.98,-95.21,0.49,-1.59,-0.55,-174.15,-39.60,-38.70,34.02,118.25,
06/01/2021,01:11:12.40,356.45,-950.68,-102.05,0.18,0.18,-1.22,-172.05,-40.20,-39.60,33.97,118.25,
06/01/2021,01:11:12.41,350.59,-950.68,-103.03,1.34,-0.55,-0.61,-171.60,-39.30,-38.70,33.88,118.25,
06/01/2021,01:11:12.41,360.84,-956.05,-104.98,0.79,-3.17,-1.22,-171.60,-39.30,-38.70,33.88,118.25,
06/01/2021,01:11:12.42,356.93,-960.45,-96.19,-0.18,0.30,1.95,-169.80,-39.60,-41.55,34.21,118.25,
06/01/2021,01:11:12.43,350.59,-960.45,-93.26,1.40,0.79,-1.71,-171.00,-38.70,-40.20,33.78,118.25,
06/01/2021,01:11:12.44,353.03,-957.52,-95.21,0.12,0.37,-0.37,-171.15,-40.35,-38.25,34.02,118.25,
06/01/2021,01:11:12.44,364.75,-951.66,-90.82,0.49,-1.28,-1.95,-169.20,-38.70,-40.20,34.02,118.25,
06/01/2021,01:11:12.45,353.03,-955.57,-93.75,-0.73,0.37,-0.98,-169.20,-38.70,-40.20,34.02,118.25,
06/01/2021,01:11:12.46,356.93,-950.20,-107.42,0.55,-1.46,-2.44,-169.50,-38.25,-42.45,33.97,118.25,
06/01/2021,01:11:12.46,353.52,-964.84,-105.96,-0.24,-0.12,-0.98,-169.50,-38.25,-42.45,34.12,118.25,
06/01/2021,01:11:12.48,355.47,-958.01,-106.93,0.43,-1.04,1.46,-172.80,-40.20,-38.55,33.83,118.25,
06/01/2021,01:11:12.48,343.26,-966.31,-96.19,0.49,-2.80,-0.24,-172.80,-40.20,-38.55,34.21,118.25,
06/01/2021,01:11:12.49,347.17,-962.40,-95.70,0.12,-1.71,-3.29,-172.80,-40.20,-38.55,34.02,118.25,
06/01/2021,01:11:12.50,353.52,-965.82,-99.61,0.49,0.18,-2.44,-170.10,-38.55,-41.55,34.02,118.25,
06/01/2021,01:11:12.50,362.30,-954.59,-91.80,1.34,-3.23,0.12,-170.10,-38.55,-41.55,34.02,118.25,
06/01/2021,01:11:12.52,357.42,-949.22,-97.66,0.49,-2.20,-1.22,-171.00,-38.70,-42.00,33.88,118.25,
06/01/2021,01:11:12.52,361.33,-961.91,-100.59,0.79,-0.91,-2.62,-171.30,-39.75,-39.15,34.16,118.25,
06/01/2021,01:11:12.53,354.98,-959.47,-99.61,0.79,-2.01,0.67,-171.30,-39.75,-39.15,33.97,118.25,
06/01/2021,01:11:12.54,349.61,-971.19,-104.49,1.77,-0.12,-0.55,-170.40,-38.55,-40.50,33.88,118.25,
06/01/2021,01:11:12.54,349.61,-951.17,-99.61,-0.79,-0.06,-1.65,-170.40,-38.55,-40.50,34.21,118.25,
06/01/2021,01:11:12.56,354.98,-944.34,-100.59,1.83,0.18,1.28,-171.60,-38.55,-38.70,33.97,118.25,
06/01/2021,01:11:12.56,347.66,-956.54,-98.14,-0.06,-0.91,-2.50,-172.50,-39.45,-39.60,33.97,118.25,
06/01/2021,01:11:12.57,353.52,-950.20,-94.24,0.30,-2.80,0.00,-172.50,-39.45,-39.60,34.12,118.25,
06/01/2021,01:11:12.58,340.82,-949.22,-92.77,0.98,-1.77,-2.68,-172.50,-39.45,-39.60,33.97,118.25,
06/01/2021,01:11:12.58,357.91,-951.66,-95.21,0.24,-2.56,-2.01,-172.50,-39.45,-39.60,34.12,118.25,
06/01/2021,01:11:12.60,351.07,-962.89,-100.10,0.06,-0.12,-1.83,-171.60,-38.85,-38.70,33.88,118.25,
06/01/2021,01:11:12.60,344.73,-964.36,-89.36,2.44,-2.87,-0.98,-173.85,-38.25,-40.20,33.97,118.25,
06/01/2021,01:11:12.61,354.98,-958.50,-98.63,1.40,-1.04,0.43,-173.85,-38.25,-40.20,34.12,118.25,
06/01/2021,01:11:12.61,351.56,-961.43,-100.10,0.55,-2.01,-1.16,-169.95,-39.00,-41.70,33.97,118.25,
06/01/2021,01:11:12.62,350.59,-960.94,-99.61,1.59,-3.05,1.04,-169.95,-39.00,-41.70,34.12,118.25,
06/01/2021,01:11:12.64,348.63,-967.29,-116.70,1.65,0.24,-0.30,-171.90,-38.85,-38.70,34.02,118.25,
06/01/2021,01:11:12.64,344.73,-965.33,-105.47,2.56,-4.57,0.24,-173.55,-40.20,-39.60,34.02,118.25,
06/01/2021,01:11:12.65,362.79,-957.03,-100.10,2.01,-1.89,0.43,-173.55,-40.20,-39.60,34.12,118.25,
06/01/2021,01:11:12.65,350.10,-963.38,-104.00,1.34,-0.55,0.79,-170.85,-39.60,-42.15,33.64,118.25,
06/01/2021,01:11:12.66,366.21,-958.01,-89.36,1.89,-0.43,-3.48,-170.85,-39.60,-42.15,34.16,118.25,
06/01/2021,01:11:12.68,361.33,-972.17,-94.24,0.98,-0.79,1.71,-169.35,-37.80,-39.45,34.12,118.25,
06/01/2021,01:11:12.68,346.19,-966.31,-96.19,2.56,-1.34,-0.12,-172.05,-38.70,-39.90,34.21,118.25,
06/01/2021,01:11:12.69,347.66,-965.33,-111.82,0.37,1.40,0.43,-172.05,-38.70,-39.90,34.02,118.25,
06/01/2021,01:11:12.69,352.05,-951.66,-105.47,0.00,-0.30,0.06,-169.95,-37.95,-40.95,34.02,118.25,
06/01/2021,01:11:12.70,348.63,-964.84,-98.63,0.91,-2.62,-0.55,-169.95,-37.95,-40.95,33.88,118.25,
06/01/2021,01:11:12.71,349.61,-958.98,-101.07,2.07,-0.73,0.67,-169.95,-37.95,-40.95,34.12,118.25,
06/01/2021,01:11:12.72,362.30,-961.91,-104.00,1.28,0.73,-0.67,-171.75,-38.25,-40.65,33.83,118.25,
06/01/2021,01:11:12.73,343.75,-950.20,-98.63,3.17,0.67,2.01,-173.55,-39.75,-40.65,33.68,118.25,
06/01/2021,01:11:12.73,342.77,-958.50,-103.52,2.99,-1.83,3.60,-173.55,-39.75,-40.65,34.02,118.25,
06/01/2021,01:11:12.74,360.84,-967.77,-112.30,1.59,0.00,-0.43,-173.55,-39.75,-40.65,34.02,118.25,
06/01/2021,01:11:12.75,350.59,-951.17,-100.10,0.91,-0.98,1.83,-171.60,-38.10,-40.80,34.02,118.25,
06/01/2021,01:11:12.76,356.93,-958.01,-106.45,-0.30,-0.79,-1.04,-170.10,-38.85,-41.85,34.02,118.25,
06/01/2021,01:11:12.77,353.03,-971.19,-94.24,1.83,-1.89,1.46,-170.10,-38.85,-41.85,34.12,118.25,
06/01/2021,01:11:12.77,353.03,-953.61,-107.91,1.40,-1.89,2.07,-169.80,-38.10,-40.05,33.83,118.25,
06/01/2021,01:11:12.78,356.93,-953.12,-100.59,1.95,-2.87,0.30,-169.80,-38.10,-40.05,33.83,118.25,
06/01/2021,01:11:12.78,345.70,-957.03,-118.65,1.95,-1.46,0.85,-169.80,-39.60,-40.50,33.83,118.25,
06/01/2021,01:11:12.80,345.70,-964.84,-116.21,1.71,-2.56,0.67,-169.20,-39.00,-39.90,34.02,118.25,
06/01/2021,01:11:12.81,351.56,-958.50,-105.47,0.85,1.89,0.85,-172.65,-39.60,-38.25,33.88,118.25,
06/01/2021,01:11:12.81,354.49,-959.96,-91.80,2.50,-0.49,2.38,-170.70,-37.95,-42.00,33.88,118.25,
06/01/2021,01:11:12.82,356.93,-962.89,-92.77,1.04,-0.18,1.95,-170.70,-37.95,-42.00,34.21,118.25,
06/01/2021,01:11:12.82,352.54,-962.40,-90.82,1.95,-0.85,-1.28,-170.70,-39.45,-40.65,33.97,118.25,
06/01/2021,01:11:12.84,346.68,-949.71,-102.05,2.13,0.18,3.96,-171.90,-39.60,-39.45,33.88,118.25,
06/01/2021,01:11:12.84,362.79,-963.87,-101.56,1.28,1.52,3.05,-171.30,-41.25,-38.85,33.83,118.25,
06/01/2021,01:11:12.85,371.09,-968.26,-108.40,-0.55,-2.80,1.22,-170.25,-38.25,-42.00,34.21,118.25,
06/01/2021,01:11:12.86,351.07,-949.22,-98.63,2.56,1.95,-0.85,-170.25,-38.25,-42.00,34.02,118.25,
06/01/2021,01:11:12.86,354.98,-962.40,-101.07,0.73,2.01,3.72,-170.25,-38.25,-42.00,34.16,118.25,
06/01/2021,01:11:12.92,357.91,-968.26,-94.24,2.32,-1.77,2.20,-171.90,-40.35,-38.70,33.88,118.25,
06/01/2021,01:11:12.94,353.52,-952.15,-89.84,0.73,-0.55,2.07,-172.50,-40.20,-39.90,33.97,118.25,
06/01/2021,01:11:12.94,351.07,-959.96,-92.29,2.74,-2.68,0.06,-173.25,-39.75,-39.15,34.02,118.25,
06/01/2021,01:11:12.95,355.96,-956.05,-89.84,2.87,-0.30,1.71,-173.25,-39.75,-39.15,34.02,118.25,
06/01/2021,01:11:12.96,342.77,-952.15,-89.36,1.22,-0.06,2.93,-173.25,-39.75,-39.15,34.12,118.25,
06/01/2021,01:11:12.96,355.96,-953.12,-83.98,1.28,0.12,-0.79,-170.70,-39.45,-40.20,33.88,118.25,
06/01/2021,01:11:12.98,352.54,-958.98,-94.24,2.32,1.28,1.22,-170.25,-39.75,-41.40,34.02,118.25,
06/01/2021,01:11:12.98,345.70,-948.73,-77.15,-0.85,2.68,-0.12,-172.20,-41.10,-38.25,34.02,118.25,
06/01/2021,01:11:12.99,343.26,-952.15,-95.21,1.65,0.06,0.55,-172.20,-41.10,-38.25,34.02,118.25,
06/01/2021,01:11:13.00,346.19,-948.24,-87.40,3.11,0.18,-0.49,-170.25,-38.70,-40.20,34.02,118.25,
06/01/2021,01:11:13.00,352.05,-958.50,-92.77,4.27,-3.17,1.04,-170.25,-39.00,-39.90,33.97,118.25,
06/01/2021,01:11:13.02,344.24,-958.50,-89.84,3.35,-0.79,-1.04,-170.40,-40.35,-40.50,33.78,118.25,
06/01/2021,01:11:13.02,341.31,-950.68,-92.77,0.37,-0.49,-3.41,-170.40,-40.35,-40.50,34.02,118.25,
06/01/2021,01:11:13.03,353.52,-966.31,-98.14,3.54,1.40,-2.07,-170.40,-40.35,-40.50,34.02,118.25,
06/01/2021,01:11:13.04,341.31,-961.43,-106.93,2.32,-1.89,-0.49,-170.85,-38.85,-40.50,34.16,118.25,
06/01/2021,01:11:13.04,344.73,-960.45,-83.98,1.71,0.91,-1.46,-170.70,-39.45,-42.45,34.02,118.25,
06/01/2021,01:11:13.06,348.63,-955.08,-91.31,1.65,0.37,-1.22,-170.70,-39.45,-42.45,34.02,118.25,
06/01/2021,01:11:13.06,343.75,-965.33,-87.89,1.59,-0.98,-1.52,-171.75,-40.95,-38.55,34.02,118.25,
06/01/2021,01:11:13.07,356.93,-970.70,-87.40,1.95,-2.62,0.18,-171.75,-40.95,-38.55,33.88,118.25,
06/01/2021,01:11:13.07,341.80,-961.43,-101.56,2.56,-0.61,-1.34,-170.10,-38.55,-40.05,34.16,118.25,
06/01/2021,01:11:13.08,351.56,-962.89,-95.70,2.26,-0.24,-2.68,-170.10,-38.55,-40.05,33.97,118.25,
06/01/2021,01:11:13.10,350.10,-967.77,-91.31,2.01,0.30,1.16,-171.15,-39.30,-39.45,33.83,118.25,
06/01/2021,01:11:13.10,330.08,-963.38,-94.24,2.20,-5.00,-0.37,-171.15,-40.05,-38.25,33.97,118.25,
06/01/2021,01:11:13.11,349.61,-967.29,-88.87,2.13,-1.40,-0.24,-171.15,-40.05,-38.25,33.97,118.25,
06/01/2021,01:11:13.11,334.96,-965.82,-92.29,1.71,2.13,-2.38,-171.15,-40.05,-38.25,34.12,118.25,
06/01/2021,01:11:13.12,344.24,-968.75,-101.56,1.34,-4.57,-2.80,-170.40,-38.10,-41.85,34.02,118.25,
06/01/2021,01:11:13.14,344.24,-965.33,-93.75,3.60,-1.52,-1.34,-170.40,-40.80,-40.50,34.12,118.25,
06/01/2021,01:11:13.14,346.19,-973.14,-88.38,2.38,-0.24,-2.80,-172.65,-40.05,-40.05,34.12,118.25,
06/01/2021,01:11:13.15,352.05,-954.10,-91.31,-0.06,-3.17,1.04,-172.65,-40.05,-40.05,34.12,118.25,
06/01/2021,01:11:13.15,341.31,-957.52,-104.00,0.98,0.06,-1.34,-170.25,-37.95,-39.90,33.97,118.25,
06/01/2021,01:11:13.16,338.38,-966.31,-104.49,0.24,-0.06,0.24,-171.00,-38.25,-40.95,34.02,118.25,
06/01/2021,01:11:13.17,349.61,-962.40,-100.59,-0.79,-0.12,-1.46,-171.00,-38.25,-40.95,34.12,118.25,
06/01/2021,01:11:13.18,343.26,-956.05,-96.19,0.12,-0.85,-0.06,-171.15,-42.15,-39.45,34.16,118.25,
06/01/2021,01:11:13.19,353.52,-973.63,-101.07,1.77,-0.85,-0.37,-171.15,-42.15,-39.45,33.88,118.25,
06/01/2021,01:11:13.19,349.12,-955.57,-92.29,1.65,0.37,-0.18,-171.90,-38.55,-40.80,34.16,118.25,
06/01/2021,01:11:13.20,346.68,-967.29,-94.73,0.06,-0.79,-0.18,-171.00,-39.75,-42.45,33.97,118.25,
06/01/2021,01:11:13.20,336.91,-963.87,-91.80,1.71,-1.28,-0.24,-171.00,-39.75,-42.45,33.97,118.25,
06/01/2021,01:11:13.22,350.59,-961.91,-97.66,2.44,-1.71,1.28,-172.95,-38.10,-39.75,33.78,118.25,
06/01/2021,01:11:13.23,357.91,-952.64,-101.56,1.89,-1.04,1.40,-172.95,-38.10,-39.75,33.97,118.25,
06/01/2021,01:11:13.23,353.52,-957.03,-107.91,3.17,-0.18,-0.85,-171.75,-38.70,-41.40,34.16,118.25,
06/01/2021,01:11:13.24,344.24,-958.01,-107.42,2.74,-1.95,4.39,-171.75,-38.70,-41.40,34.12,118.25,
06/01/2021,01:11:13.24,350.59,-959.47,-105.96,3.17,2.01,1.28,-171.75,-38.70,-41.40,34.12,118.25,
06/01/2021,01:11:13.26,354.98,-958.01,-94.73,0.43,-0.43,4.09,-172.50,-39.75,-39.15,33.78,118.25,
06/01/2021,01:11:13.27,342.29,-962.89,-106.93,-0.12,1.83,0.18,-172.50,-39.75,-39.15,34.12,118.25,
06/01/2021,01:11:13.27,344.24,-962.40,-105.47,2.07,-2.99,0.12,-172.50,-39.75,-39.15,33.83,118.25,
06/01/2021,01:11:13.28,351.56,-954.59,-96.68,-0.37,-1.28,-0.12,-172.50,-39.75,-39.15,33.88,118.25,
06/01/2021,01:11:13.28,360.35,-955.57,-105.47,1.10,-0.79,-0.79,-170.85,-39.60,-40.50,34.02,118.25,
06/01/2021,01:11:13.30,354.00,-968.75,-99.61,0.79,-2.50,-0.73,-169.20,-39.45,-41.40,34.12,118.25,
06/01/2021,01:11:13.30,346.68,-965.82,-99.61,0.85,0.61,1.22,-169.20,-39.45,-41.40,34.12,118.25,
06/01/2021,01:11:13.31,353.52,-962.40,-90.82,1.52,-1.95,0.49,-169.95,-38.25,-41.40,34.12,118.25,
06/01/2021,01:11:13.32,347.66,-963.87,-99.12,1.04,0.06,1.28,-169.95,-38.25,-41.40,33.83,118.25,
06/01/2021,01:11:13.32,340.82,-959.47,-90.82,0.24,1.10,1.28,-170.10,-37.05,-41.10,34.02,118.25,
06/01/2021,01:11:13.34,349.61,-951.17,-92.29,-0.30,0.61,-1.40,-171.00,-41.25,-39.60,34.02,118.25,
06/01/2021,01:11:13.34,366.70,-958.01,-90.82,-0.18,-3.48,-2.62,-171.00,-41.25,-39.60,34.12,118.25,
06/01/2021,01:11:13.35,356.93,-961.43,-99.61,2.01,-3.17,-1.10,-170.70,-38.70,-40.65,34.02,118.25,
06/01/2021,01:11:13.36,370.61,-955.57,-97.66,2.01,-2.44,0.18,-170.70,-38.70,-40.65,33.78,118.25,
06/01/2021,01:11:13.36,346.68,-966.80,-96.19,-0.18,1.40,-1.65,-171.15,-40.05,-39.75,33.88,118.25,
06/01/2021,01:11:13.38,346.19,-963.38,-88.87,-0.12,-0.12,-1.34,-171.60,-39.30,-39.75,33.83,118.25,
06/01/2021,01:11:13.38,365.23,-971.68,-98.63,0.12,-2.32,-1.77,-171.60,-39.30,-39.75,33.88,118.25,
06/01/2021,01:11:13.43,340.33,-966.31,-87.40,-0.12,-3.60,-1.59,-172.80,-40.95,-38.55,34.02,118.25,
06/01/2021,01:11:13.45,365.72,-962.40,-85.94,1.28,-2.68,-1.95,-171.75,-39.45,-38.55,34.02,118.25,
06/01/2021,01:11:13.45,358.40,-958.50,-85.94,1.28,-1.71,-0.61,-171.75,-39.45,-39.15,33.83,118.25,
06/01/2021,01:11:13.46,358.89,-945.80,-89.36,-1.04,-0.49,-0.85,-171.75,-39.45,-39.15,33.88,118.25,
06/01/2021,01:11:13.47,349.61,-950.20,-82.03,-0.67,-6.40,0.24,-170.40,-38.55,-40.80,33.78,118.25,
06/01/2021,01:11:13.48,345.21,-962.89,-97.66,-1.77,-4.51,-1.89,-172.80,-39.00,-39.15,34.02,118.25,
06/01/2021,01:11:13.49,353.52,-961.43,-101.07,1.16,-3.48,0.79,-172.80,-39.00,-39.15,34.12,118.25,
06/01/2021,01:11:13.49,349.61,-945.80,-106.93,-1.10,-3.60,-1.40,-172.80,-39.00,-39.15,34.12,118.25,
06/01/2021,01:11:13.50,369.14,-955.08,-96.19,-0.18,-1.22,-0.61,-170.40,-37.05,-40.50,33.88,118.25,
06/01/2021,01:11:13.51,349.12,-947.75,-108.89,-0.43,-5.18,1.46,-169.35,-40.35,-39.00,34.21,118.25,
06/01/2021,01:11:13.52,349.61,-952.64,-119.63,0.91,-1.65,-1.10,-173.25,-39.00,-39.90,33.88,118.25,
06/01/2021,01:11:13.53,341.31,-961.91,-122.07,0.30,-4.88,2.01,-173.25,-39.00,-39.90,33.88,118.25,
06/01/2021,01:11:13.53,348.63,-970.70,-117.68,1.71,-0.61,-1.83,-169.80,-38.85,-41.10,33.88,118.25,
06/01/2021,01:11:13.54,334.47,-958.98,-121.58,0.91,-2.13,-1.71,-170.10,-38.10,-41.85,34.12,118.25,
06/01/2021,01:11:13.55,357.42,-975.59,-97.17,0.43,2.56,-2.13,-170.70,-39.45,-39.15,33.83,118.25,
06/01/2021,01:11:13.56,342.29,-966.31,-107.42,-0.91,1.52,-2.20,-170.70,-39.45,-39.15,33.83,118.25,
06/01/2021,01:11:13.56,354.98,-968.26,-96.19,-0.24,0.98,-2.68,-170.70,-39.45,-39.15,34.02,118.25,
06/01/2021,01:11:13.57,357.91,-971.68,-95.70,1.46,-1.83,-2.01,-169.35,-38.85,-39.75,33.83,118.25,
06/01/2021,01:11:13.58,344.73,-971.19,-95.70,-0.24,0.79,-1.34,-169.50,-38.25,-40.20,34.12,118.25,
06/01/2021,01:11:13.59,348.63,-969.24,-109.38,-0.61,-2.62,0.18,-169.50,-38.25,-40.20,33.83,118.25,
06/01/2021,01:11:13.60,347.17,-963.87,-108.89,0.12,-3.48,-3.54,-173.40,-39.30,-38.25,34.02,118.25,
06/01/2021,01:11:13.60,355.47,-955.08,-120.61,-0.12,-4.27,1.28,-173.40,-39.30,-38.25,34.02,118.25,
06/01/2021,01:11:13.61,334.96,-959.96,-103.03,0.30,-3.41,-0.61,-170.70,-38.70,-40.20,34.02,118.25,
06/01/2021,01:11:13.62,341.31,-950.20,-100.59,1.10,0.73,-2.13,-170.70,-38.70,-40.20,34.12,118.25,
06/01/2021,01:11:13.63,340.33,-964.36,-102.05,0.73,-0.37,0.30,-172.20,-38.10,-39.45,34.31,118.25,
06/01/2021,01:11:13.64,349.61,-955.57,-108.89,-0.24,1.65,-2.38,-172.20,-38.85,-38.70,33.83,118.25,
06/01/2021,01:11:13.64,336.43,-962.40,-97.66,0.98,2.93,-0.67,-172.20,-38.85,-38.70,33.97,118.25,
06/01/2021,01:11:13.65,354.98,-958.98,-100.10,1.34,-0.61,-2.07,-172.20,-38.85,-38.70,34.02,118.25,
06/01/2021,01:11:13.65,345.70,-965.82,-95.70,0.24,-1.83,1.28,-172.20,-38.85,-38.70,34.12,118.25,
06/01/2021,01:11:13.67,339.36,-959.96,-103.03,0.98,-1.22,0.06,-171.60,-40.80,-39.75,33.88,118.25,
06/01/2021,01:11:13.68,345.70,-954.59,-92.77,1.10,3.54,0.91,-172.50,-39.75,-39.60,34.12,118.25,
06/01/2021,01:11:13.68,341.31,-959.47,-93.26,1.40,0.06,-0.79,-172.50,-39.75,-39.60,33.83,118.25,
06/01/2021,01:11:13.69,354.00,-958.98,-88.38,2.74,1.34,0.06,-170.10,-38.55,-42.15,33.83,118.25,
06/01/2021,01:11:13.69,348.14,-952.15,-102.05,2.13,1.83,1.16,-170.10,-38.55,-42.15,34.02,118.25,
06/01/2021,01:11:13.70,359.38,-965.33,-96.19,0.98,1.16,0.12,-170.85,-37.80,-41.10,34.02,118.25,
06/01/2021,01:11:13.72,350.10,-971.68,-97.66,3.35,-0.49,1.95,-171.30,-40.20,-39.15,34.02,118.25,
06/01/2021,01:11:13.72,341.31,-958.50,-92.29,2.01,1.89,-0.85,-171.30,-40.20,-39.15,33.88,118.25,
06/01/2021,01:11:13.73,341.31,-956.54,-93.75,1.52,2.26,2.44,-170.70,-39.00,-40.95,34.02,118.25,
06/01/2021,01:11:13.73,367.19,-954.10,-103.52,3.05,0.49,1.52,-170.70,-39.00,-40.95,34.12,118.25,
06/01/2021,01:11:13.74,363.28,-966.80,-102.05,3.96,1.59,0.79,-169.80,-40.05,-39.75,34.02,118.25,
06/01/2021,01:11:13.75,364.75,-948.73,-95.21,2.26,1.28,-1.16,-169.80,-40.05,-39.75,34.16,118.25,
06/01/2021,01:11:13.76,349.61,-954.59,-91.31,1.52,1.83,-0.91,-171.90,-41.55,-37.95,34.02,118.25,
06/01/2021,01:11:13.77,362.30,-951.17,-88.87,4.63,-1.40,1.89,-170.10,-38.55,-40.80,33.88,118.25,
06/01/2021,01:11:13.77,365.72,-968.75,-88.38,2.38,2.62,2.07,-170.10,-38.55,-40.80,34.02,118.25,
06/01/2021,01:11:13.78,352.54,-954.59,-88.38,3.72,-0.37,0.73,-170.10,-38.55,-40.80,33.83,118.25,
06/01/2021,01:11:13.79,349.61,-950.20,-83.50,4.15,2.44,-1.71,-169.80,-40.80,-40.80,33.88,118.25,
06/01/2021,01:11:13.80,365.72,-961.91,-84.96,0.79,-0.55,-2.50,-172.80,-39.45,-39.15,33.88,118.25,
06/01/2021,01:11:13.81,341.80,-967.77,-84.47,3.84,3.05,-1.89,-172.80,-39.45,-39.15,34.12,118.25,
06/01/2021,01:11:13.81,364.26,-953.12,-73.73,3.17,4.45,-0.67,-172.80,-39.45,-39.15,34.21,118.25,
06/01/2021,01:11:13.82,352.54,-952.64,-84.47,2.74,-0.06,-1.22,-169.95,-39.00,-40.20,33.83,118.25,
06/01/2021,01:11:13.83,356.93,-944.82,-97.17,0.98,2.38,1.77,-169.95,-38.70,-40.95,34.12,118.25,
06/01/2021,01:11:13.84,353.03,-961.43,-94.24,1.83,2.07,-0.73,-169.95,-38.70,-40.95,33.97,118.25,
06/01/2021,01:11:13.85,355.96,-962.40,-96.19,2.62,-0.37,-0.91,-171.60,-39.60,-40.05,34.02,118.25,
06/01/2021,01:11:13.85,357.42,-952.64,-98.63,4.33,-1.52,0.73,-171.60,-39.60,-40.05,33.78,118.25,
06/01/2021,01:11:13.86,349.12,-956.54,-77.15,1.10,0.00,1.89,-170.25,-39.75,-39.90,33.88,118.25,
06/01/2021,01:11:13.86,361.82,-970.21,-91.80,3.41,-1.34,0.37,-170.25,-39.75,-39.90,33.49,118.25,
06/01/2021,01:11:13.88,365.72,-964.84,-83.98,3.54,0.30,-0.73,-171.00,-39.45,-39.15,33.88,118.25,
06/01/2021,01:11:13.88,352.05,-960.94,-107.42,2.80,1.52,-0.85,-172.05,-39.75,-39.60,34.02,118.25,
06/01/2021,01:11:13.89,363.28,-963.38,-91.31,2.80,-0.98,0.30,-172.05,-39.75,-39.60,33.97,118.25,
06/01/2021,01:11:13.92,346.68,-958.01,-86.43,3.11,1.77,-0.67,-172.65,-40.80,-38.70,34.02,118.25,
06/01/2021,01:11:13.94,357.42,-964.84,-90.82,2.62,-2.01,-2.44,-172.65,-40.80,-38.70,34.02,118.25,
06/01/2021,01:11:13.95,343.75,-944.34,-96.19,2.07,1.28,-0.67,-170.70,-39.75,-37.80,34.02,118.25,
06/01/2021,01:11:13.96,354.00,-967.29,-91.31,2.26,-0.06,0.24,-170.70,-39.75,-37.80,33.88,118.25,
06/01/2021,01:11:13.97,347.66,-962.89,-105.96,1.04,2.13,-2.07,-170.70,-39.75,-37.80,34.02,118.25,
06/01/2021,01:11:13.97,360.84,-957.52,-97.17,2.87,-0.55,-1.71,-170.70,-39.75,-37.80,34.12,118.25,
06/01/2021,01:11:13.98,345.70,-958.50,-100.59,0.67,-0.85,-0.43,-171.15,-38.10,-40.05,34.02,118.25,
06/01/2021,01:11:13.99,358.40,-966.31,-95.21,1.59,-2.80,-2.20,-172.20,-37.80,-41.85,34.21,118.25,
06/01/2021,01:11:14.00,358.89,-957.03,-94.73,1.95,-1.34,0.49,-172.20,-37.80,-41.85,34.02,118.25,
06/01/2021,01:11:14.00,354.49,-957.52,-95.70,1.83,-1.71,-1.95,-170.25,-40.20,-39.60,34.12,118.25,
06/01/2021,01:11:14.01,344.24,-940.92,-97.17,2.74,-1.52,-0.49,-170.25,-40.20,-39.60,33.97,118.25,
06/01/2021,01:11:14.02,348.63,-962.89,-102.05,2.99,-0.30,-2.20,-170.85,-38.55,-40.80,33.78,118.25,
06/01/2021,01:11:14.03,347.17,-955.57,-97.17,2.99,-3.84,-2.32,-170.85,-38.55,-40.80,33.78,118.25,
06/01/2021,01:11:14.04,364.75,-946.78,-101.07,1.59,0.61,-2.13,-173.40,-40.80,-37.95,33.88,118.25,
06/01/2021,01:11:14.04,354.00,-959.47,-91.80,0.24,-0.85,-1.77,-171.00,-39.45,-39.90,33.97,118.25,
06/01/2021,01:11:14.05,355.96,-954.10,-89.84,-1.16,-0.06,-0.91,-171.00,-39.45,-39.90,33.88,118.25,
06/01/2021,01:11:14.06,342.29,-950.68,-93.75,2.68,-1.95,-0.30,-170.10,-37.80,-40.50,33.78,118.25,
06/01/2021,01:11:14.07,354.98,-950.20,-97.66,1.89,-2.50,2.38,-169.35,-39.30,-39.75,34.02,118.25,
06/01/2021,01:11:14.08,345.21,-954.59,-79.10,0.73,0.61,-0.91,-172.95,-41.10,-37.95,34.02,118.25,
06/01/2021,01:11:14.08,358.89,-967.29,-89.84,3.48,-2.99,-0.30,-172.50,-39.00,-40.20,34.16,118.25,
06/01/2021,01:11:14.09,370.12,-966.31,-86.91,1.40,-3.23,-2.26,-172.50,-39.00,-40.20,34.31,118.25,
06/01/2021,01:11:14.10,344.24,-966.31,-100.10,2.20,-2.13,2.56,-170.25,-39.00,-41.70,34.12,118.25,
06/01/2021,01:11:14.11,350.10,-966.80,-78.61,1.83,-1.46,-2.32,-170.25,-37.50,-40.95,33.97,118.25,
06/01/2021,01:11:14.12,342.29,-954.10,-93.75,1.46,-1.16,-1.28,-172.65,-40.35,-39.45,34.02,118.25,
06/01/2021,01:11:14.12,362.79,-970.70,-94.73,1.40,-1.95,-2.13,-172.65,-40.35,-39.45,33.97,118.25,
06/01/2021,01:11:14.13,353.52,-962.40,-83.01,2.99,0.98,3.17,-172.65,-40.35,-39.45,34.21,118.25,
06/01/2021,01:11:14.14,350.10,-960.45,-90.82,1.83,-0.30,-0.24,-170.25,-38.70,-40.20,33.97,118.25,
06/01/2021,01:11:14.14,345.21,-964.36,-82.03,1.46,-2.56,0.73,-170.25,-38.70,-40.20,34.16,118.25,
06/01/2021,01:11:14.16,347.17,-968.75,-88.87,0.55,-2.99,0.61,-169.20,-39.00,-41.40,33.78,118.25,
06/01/2021,01:11:14.16,356.93,-955.57,-79.59,4.27,-0.79,-0.30,-171.75,-39.45,-39.60,33.97,118.25,
06/01/2021,01:11:14.17,367.19,-957.52,-90.33,2.87,0.43,2.80,-171.75,-39.45,-39.60,34.16,118.25,
06/01/2021,01:11:14.17,350.10,-959.96,-85.45,1.95,0.73,0.24,-171.00,-37.50,-40.65,34.02,118.25,
06/01/2021,01:11:14.18,360.35,-953.61,-85.94,3.05,-3.41,1.95,-171.00,-37.50,-40.65,34.02,118.25,
06/01/2021,01:11:14.20,360.35,-955.08,-85.94,0.37,1.65,0.24,-171.90,-38.85,-39.00,34.31,118.25,
06/01/2021,01:11:14.20,353.03,-964.84,-86.43,0.98,-1.59,0.73,-171.90,-38.85,-39.00,33.64,118.25,
06/01/2021,01:11:14.21,353.52,-948.73,-78.12,0.30,-1.04,0.37,-171.90,-38.85,-38.25,33.97,118.25,
06/01/2021,01:11:14.21,353.03,-954.59,-78.61,1.71,-2.01,1.34,-171.75,-38.25,-40.65,34.21,118.25,
06/01/2021,01:11:14.22,371.09,-953.61,-78.12,1.40,-2.56,3.05,-171.75,-38.25,-40.65,34.21,118.25,
06/01/2021,01:11:14.23,354.00,-965.33,-89.36,1.34,-0.98,-0.18,-171.90,-41.55,-37.65,34.02,118.25,
06/01/2021,01:11:14.24,355.47,-963.38,-88.87,0.98,-1.22,-0.37,-171.90,-41.55,-37.65,34.02,118.25,
06/01/2021,01:11:14.25,356.45,-960.94,-92.29,1.95,-1.28,0.85,-171.75,-37.50,-38.85,34.02,118.25,
06/01/2021,01:11:14.25,355.47,-972.17,-89.84,1.77,-0.43,1.34,-170.10,-39.60,-40.05,33.88,118.25,
06/01/2021,01:11:14.26,353.03,-963.87,-88.87,1.59,-0.49,-0.98,-170.10,-39.60,-40.05,34.02,118.25,
06/01/2021,01:11:14.27,348.14,-958.01,-84.47,2.50,-2.26,-0.49,-172.20,-39.30,-38.70,33.88,118.25,
06/01/2021,01:11:14.28,354.49,-965.82,-78.61,3.54,-1.40,1.77,-172.20,-39.30,-38.70,34.12,118.25,
06/01/2021,01:11:14.29,362.30,-954.59,-89.36,2.26,-2.32,0.06,-172.20,-39.30,-38.70,34.02,118.25,
06/01/2021,01:11:14.29,347.17,-967.77,-98.63,1.34,-1.28,-0.67,-170.70,-39.75,-41.40,33.97,118.25,
06/01/2021,01:11:14.30,352.05,-963.38,-90.82,1.71,-1.10,0.37,-170.70,-39.75,-41.40,34.16,118.25,
06/01/2021,01:11:14.30,361.33,-962.40,-82.03,3.23,0.24,2.01,-170.25,-39.00,-40.20,33.83,118.25,
06/01/2021,01:11:14.32,345.21,-959.96,-89.84,-0.43,-1.52,-0.49,-170.25,-39.00,-40.20,33.78,118.25,
06/01/2021,01:11:14.32,365.72,-968.75,-88.87,1.34,-2.80,0.24,-171.30,-40.50,-38.10,34.02,118.25,
06/01/2021,01:11:14.33,353.52,-954.59,-88.87,3.78,0.49,0.37,-171.15,-40.05,-40.80,34.02,118.25,
06/01/2021,01:11:14.34,370.12,-964.36,-91.31,1.46,-4.70,-0.18,-171.15,-40.05,-40.80,33.83,118.25,
06/01/2021,01:11:14.34,358.40,-965.33,-86.43,0.00,-2.26,0.06,-171.15,-40.05,-40.80,34.02,118.25,
06/01/2021,01:11:14.36,370.12,-963.38,-83.50,1.89,1.04,-0.43,-171.00,-40.20,-40.20,33.88,118.25,
06/01/2021,01:11:14.36,360.84,-950.68,-100.10,0.37,1.22,0.61,-171.75,-39.75,-38.55,34.21,118.25,
06/01/2021,01:11:14.37,370.61,-957.03,-81.05,-0.55,-0.49,-0.67,-171.75,-39.75,-38.55,34.02,118.25,
06/01/2021,01:11:14.38,352.05,-958.50,-91.80,1.95,-0.49,1.65,-171.75,-39.75,-38.55,34.12,118.25,
06/01/2021,01:11:14.38,354.00,-961.43,-91.80,0.24,0.61,-0.73,-170.70,-39.00,-38.85,34.16,118.25,
06/01/2021,01:11:14.40,361.82,-971.19,-97.66,1.22,-2.87,-2.32,-172.65,-39.60,-39.45,33.97,118.25,
06/01/2021,01:11:14.43,355.47,-965.82,-87.40,-0.18,-1.89,-1.95,-171.60,-40.35,-39.45,33.88,118.25,
06/01/2021,01:11:14.44,355.47,-963.38,-82.52,1.52,0.73,-3.17,-172.80,-41.70,-39.15,34.02,118.25,
06/01/2021,01:11:14.45,353.03,-952.15,-97.66,0.61,-1.95,-1.22,-172.95,-39.30,-39.00,34.12,118.25,
06/01/2021,01:11:14.46,352.05,-968.75,-85.94,1.22,-2.01,-0.79,-172.95,-39.30,-39.00,33.83,118.25,
06/01/2021,01:11:14.47,358.40,-964.36,-89.36,-0.91,-2.20,-1.89,-171.75,-38.70,-41.70,33.88,118.25,
