rtcDate,rtcTime,aX,aY,aZ,gX,gY,gZ,mX,mY,mZ,imu_degC,output_Hz,
06/01/2021,01:09:08.87,-349.12,-1445.31,-232.42,-14.70,27.62,53.90,-37.50,-38.10,40.65,35.70,118.41,
06/01/2021,01:09:08.92,-290.04,-1111.33,-238.28,-21.77,-42.62,65.00,-34.80,-39.90,43.05,35.89,118.41,
06/01/2021,01:09:08.93,-303.71,-1089.84,-258.30,-22.87,-45.00,66.83,-34.20,-39.30,41.85,35.55,118.41,
06/01/2021,01:09:08.94,-327.15,-1061.52,-268.55,-24.45,-44.57,65.73,-34.20,-40.80,41.40,35.79,118.41,
06/01/2021,01:09:08.94,-323.24,-1037.11,-271.48,-28.23,-37.99,63.48,-34.20,-40.80,41.40,35.60,118.41,
06/01/2021,01:09:08.96,-329.10,-947.27,-246.09,-32.68,-24.63,55.73,-35.25,-39.00,42.15,35.60,118.41,
06/01/2021,01:09:08.97,-312.50,-921.88,-227.05,-33.23,-15.43,55.49,-35.25,-39.00,42.15,35.89,118.41,
06/01/2021,01:09:08.97,-297.36,-890.62,-215.33,-34.88,-15.55,51.22,-33.75,-39.30,41.40,35.70,118.41,
06/01/2021,01:09:08.98,-286.62,-861.82,-218.26,-37.26,-13.17,45.85,-33.75,-39.30,41.40,35.79,118.41,
06/01/2021,01:09:08.98,-260.74,-848.63,-207.52,-37.32,-11.71,42.50,-33.75,-39.30,41.40,35.70,118.41,
06/01/2021,01:09:09.00,-228.52,-826.17,-196.78,-40.91,-14.82,33.29,-32.40,-39.30,40.65,36.08,118.41,
06/01/2021,01:09:09.01,-237.79,-798.34,-189.94,-41.71,-15.61,27.68,-32.40,-39.30,40.65,35.94,118.41,
06/01/2021,01:09:09.01,-231.45,-798.83,-167.48,-45.06,-16.95,19.94,-32.70,-40.50,41.40,35.89,118.41,
06/01/2021,01:09:09.02,-232.91,-797.36,-173.83,-47.07,-21.59,18.11,-32.55,-38.40,41.25,35.60,118.41,
06/01/2021,01:09:09.03,-237.79,-794.92,-173.34,-47.74,-24.94,11.77,-32.55,-38.40,41.25,35.89,118.41,
06/01/2021,01:09:09.04,-231.45,-817.38,-155.27,-54.02,-27.93,-5.91,-33.00,-39.75,40.35,35.75,118.41,
06/01/2021,01:09:09.05,-233.40,-826.17,-127.93,-55.49,-33.96,-13.60,-33.00,-39.75,40.35,35.94,118.41,
06/01/2021,01:09:09.05,-232.91,-841.80,-113.77,-56.04,-33.90,-19.82,-32.85,-38.40,40.95,35.79,118.41,
06/01/2021,01:09:09.06,-239.26,-851.07,-110.84,-58.11,-43.11,-27.13,-31.80,-39.15,40.20,35.98,118.41,
06/01/2021,01:09:09.07,-245.61,-862.79,-98.14,-58.72,-47.38,-31.83,-31.80,-39.15,40.20,35.75,118.41,
06/01/2021,01:09:09.08,-271.48,-914.06,-65.43,-61.77,-65.06,-52.44,-31.20,-38.10,39.90,35.89,118.41,
06/01/2021,01:09:09.09,-264.16,-933.59,-58.11,-64.21,-70.98,-59.15,-31.20,-38.10,39.90,35.55,118.41,
06/01/2021,01:09:09.09,-271.48,-945.31,-43.95,-64.21,-76.40,-62.56,-31.20,-38.10,39.90,35.70,118.41,
06/01/2021,01:09:09.10,-293.46,-945.31,-39.06,-67.20,-86.34,-69.02,-33.60,-36.90,39.75,35.89,118.41,
06/01/2021,01:09:09.11,-295.90,-959.96,-28.32,-65.98,-91.71,-69.82,-33.60,-36.90,39.75,35.75,118.41,
06/01/2021,01:09:09.12,-326.17,-953.61,-0.49,-68.17,-108.35,-76.59,-33.75,-34.65,37.80,35.75,118.41,
06/01/2021,01:09:09.13,-341.80,-951.17,-6.35,-65.55,-117.44,-74.76,-33.75,-34.65,37.80,36.22,118.41,
06/01/2021,01:09:09.13,-354.98,-954.59,13.67,-67.32,-122.74,-74.21,-32.10,-36.00,37.20,35.89,118.41,
06/01/2021,01:09:09.14,-356.93,-945.80,0.49,-66.46,-125.91,-71.71,-35.85,-34.50,37.95,35.60,118.41,
06/01/2021,01:09:09.15,-372.07,-956.05,2.93,-66.40,-132.13,-69.51,-35.85,-34.50,37.95,35.79,118.41,
06/01/2021,01:09:09.16,-392.58,-942.38,-8.79,-61.77,-137.20,-61.28,-34.95,-34.65,35.55,35.79,118.41,
06/01/2021,01:09:09.17,-380.86,-940.43,-16.11,-61.22,-134.51,-57.56,-33.60,-33.30,35.10,35.70,118.41,
06/01/2021,01:09:09.18,-388.67,-922.85,-13.67,-62.87,-132.07,-54.82,-33.60,-33.30,35.10,35.89,118.41,
06/01/2021,01:09:09.18,-396.48,-918.95,-26.37,-58.41,-132.87,-49.76,-33.60,-33.30,35.10,35.79,118.41,
06/01/2021,01:09:09.19,-396.48,-905.27,-33.69,-56.22,-126.65,-45.49,-33.60,-33.30,35.10,35.89,118.41,
06/01/2021,01:09:09.20,-376.46,-870.61,-48.83,-48.17,-113.90,-33.35,-34.05,-32.55,34.35,35.89,118.41,
06/01/2021,01:09:09.21,-412.60,-857.42,-47.85,-46.40,-107.07,-29.02,-34.05,-30.75,32.85,35.60,118.41,
06/01/2021,01:09:09.22,-406.25,-865.72,-47.85,-41.34,-100.30,-26.77,-34.05,-30.75,32.85,35.75,118.41,
06/01/2021,01:09:09.22,-393.55,-865.72,-47.36,-41.16,-89.51,-23.48,-33.45,-31.20,32.25,35.70,118.41,
06/01/2021,01:09:09.23,-404.79,-858.89,-50.78,-39.51,-83.90,-22.74,-33.45,-31.20,32.25,35.70,118.41,
06/01/2021,01:09:09.24,-390.62,-854.49,-50.78,-34.82,-62.32,-13.54,-34.20,-31.20,33.00,35.79,118.41,
06/01/2021,01:09:09.25,-383.79,-847.17,-35.16,-30.43,-54.33,-15.55,-33.60,-32.55,32.40,35.89,118.41,
06/01/2021,01:09:09.26,-371.58,-854.00,-33.69,-29.88,-49.63,-12.68,-33.60,-32.55,32.40,35.89,118.41,
06/01/2021,01:09:09.26,-363.77,-848.63,-21.97,-28.48,-45.24,-16.34,-33.45,-31.65,30.45,35.70,118.41,
06/01/2021,01:09:09.27,-352.05,-856.45,-20.51,-28.41,-41.28,-15.61,-33.45,-31.65,30.45,35.75,118.41,
06/01/2021,01:09:09.28,-311.04,-868.16,-15.62,-28.72,-41.16,-18.17,-33.60,-32.55,30.30,35.79,118.41,
06/01/2021,01:09:09.29,-291.02,-876.95,-16.11,-27.07,-43.72,-20.00,-33.60,-32.55,30.30,35.75,118.41,
06/01/2021,01:09:09.30,-286.62,-870.61,-10.25,-30.24,-45.06,-20.12,-33.60,-32.55,30.30,35.98,118.41,
06/01/2021,01:09:09.30,-275.39,-879.39,-19.53,-29.21,-50.61,-23.35,-31.20,-30.90,30.15,35.75,118.41,
06/01/2021,01:09:09.31,-275.39,-876.46,-13.67,-28.78,-56.22,-29.82,-31.20,-30.90,30.15,35.79,118.41,
06/01/2021,01:09:09.33,-271.97,-896.97,5.37,-29.15,-72.44,-34.33,-31.95,-29.40,29.70,35.79,118.41,
06/01/2021,01:09:09.33,-267.58,-895.02,7.32,-29.51,-76.40,-37.32,-31.80,-29.85,29.55,35.70,118.41,
06/01/2021,01:09:09.34,-275.88,-907.23,2.44,-31.52,-86.83,-42.32,-31.80,-29.85,29.55,35.94,118.41,
06/01/2021,01:09:09.34,-277.34,-905.27,11.72,-31.40,-94.88,-47.01,-31.65,-29.70,28.95,35.79,118.41,
06/01/2021,01:09:09.35,-278.32,-921.39,22.95,-30.49,-101.22,-50.79,-31.65,-29.70,28.95,35.75,118.41,
06/01/2021,01:09:09.37,-307.13,-936.52,16.60,-31.65,-116.46,-59.27,-30.30,-27.15,28.05,35.98,118.41,
06/01/2021,01:09:09.37,-318.36,-947.27,8.30,-32.87,-121.16,-62.32,-31.05,-27.60,28.50,35.79,118.41,
06/01/2021,01:09:09.38,-323.73,-957.52,20.02,-32.62,-126.46,-65.61,-31.05,-27.60,28.50,35.94,118.41,
06/01/2021,01:09:09.38,-319.34,-959.96,24.41,-30.91,-130.24,-70.98,-31.05,-27.60,28.50,35.89,118.41,
06/01/2021,01:09:09.39,-339.84,-975.10,14.65,-30.00,-132.80,-73.05,-30.30,-26.40,27.30,35.89,118.41,
06/01/2021,01:09:09.44,-432.62,-1064.94,-39.06,-23.29,-127.32,-95.91,-29.25,-26.10,23.40,35.79,118.41,
06/01/2021,01:09:09.45,-470.21,-1162.11,-39.06,-19.76,-116.89,-105.43,-29.70,-25.50,22.80,35.98,118.41,
06/01/2021,01:09:09.46,-483.89,-1235.84,-35.64,-19.94,-110.55,-107.74,-29.70,-25.50,22.80,35.60,118.41,
06/01/2021,01:09:09.46,-499.51,-1323.24,-38.57,-18.35,-106.89,-109.39,-29.55,-25.65,24.75,35.79,118.41,
06/01/2021,01:09:09.47,-527.83,-1391.11,-33.69,-16.40,-99.88,-114.57,-29.55,-25.65,24.75,35.94,118.41,
06/01/2021,01:09:09.48,-558.59,-1563.96,10.25,-15.43,-92.87,-118.35,-31.65,-24.30,23.10,35.75,118.41,
06/01/2021,01:09:09.49,-547.36,-1538.09,7.81,-12.62,-94.70,-118.11,-31.65,-24.30,23.10,35.60,118.41,
06/01/2021,01:09:09.50,-565.92,-1489.75,26.37,-12.74,-97.07,-118.48,-31.65,-24.30,23.10,35.75,118.41,
06/01/2021,01:09:09.50,-553.22,-1410.64,4.88,-9.63,-100.37,-118.78,-29.40,-23.25,22.80,35.89,118.41,
06/01/2021,01:09:09.51,-562.99,-1328.12,3.91,-6.71,-101.40,-109.09,-29.40,-23.25,22.80,36.08,118.41,
06/01/2021,01:09:09.53,-573.73,-1139.16,-93.26,-0.85,-109.63,-87.93,-29.40,-21.30,21.00,35.89,118.41,
06/01/2021,01:09:09.53,-558.59,-1047.85,-123.05,5.24,-108.72,-77.62,-27.75,-20.70,20.40,35.79,118.41,
06/01/2021,01:09:09.54,-558.59,-973.14,-168.95,6.34,-104.88,-67.13,-27.75,-20.70,20.40,36.08,118.41,
06/01/2021,01:09:09.54,-555.66,-885.25,-200.20,11.83,-99.82,-58.54,-28.05,-20.70,19.65,36.13,118.41,
06/01/2021,01:09:09.55,-539.06,-819.82,-235.35,13.60,-90.98,-49.51,-28.05,-20.70,19.65,35.94,118.41,
06/01/2021,01:09:09.57,-496.58,-697.27,-248.05,18.96,-64.02,-23.41,-29.25,-19.20,18.90,35.89,118.41,
06/01/2021,01:09:09.57,-495.61,-705.08,-247.56,22.44,-52.38,-18.90,-28.05,-19.95,17.55,35.94,118.41,
06/01/2021,01:09:09.58,-485.84,-702.64,-252.44,21.89,-40.55,-13.60,-28.05,-19.95,17.55,35.70,118.41,
06/01/2021,01:09:09.58,-478.03,-745.61,-230.96,23.90,-29.27,-3.72,-28.05,-19.95,17.55,35.60,118.41,
06/01/2021,01:09:09.59,-483.89,-776.37,-243.65,23.66,-18.66,2.87,-25.50,-19.20,16.80,35.79,118.41,
06/01/2021,01:09:09.61,-467.29,-877.44,-192.38,21.89,2.87,14.15,-26.10,-20.85,18.45,35.75,118.41,
06/01/2021,01:09:09.61,-450.68,-906.74,-175.29,20.00,8.60,18.05,-26.10,-18.90,17.25,35.79,118.41,
06/01/2021,01:09:09.62,-440.43,-921.39,-137.21,20.37,13.48,19.70,-26.10,-18.90,17.25,35.89,118.41,
06/01/2021,01:09:09.62,-425.78,-952.15,-135.25,16.40,15.55,23.72,-25.65,-20.85,17.70,35.55,118.41,
06/01/2021,01:09:09.63,-413.57,-952.15,-108.89,16.52,13.35,25.30,-24.90,-21.30,16.95,35.79,118.41,
06/01/2021,01:09:09.65,-360.35,-975.59,-101.56,10.18,1.65,32.20,-24.60,-20.55,18.00,35.75,118.41,
06/01/2021,01:09:09.65,-339.84,-967.29,-76.66,4.51,-3.96,36.83,-24.60,-20.55,18.00,35.75,118.41,
06/01/2021,01:09:09.66,-319.82,-965.33,-69.34,2.38,-15.18,35.00,-24.60,-20.55,18.00,35.75,118.41,
06/01/2021,01:09:09.66,-312.99,-960.94,-62.99,-3.72,-25.18,35.73,-22.65,-22.35,16.95,35.70,118.41,
06/01/2021,01:09:09.67,-288.09,-973.63,-77.64,-2.32,-37.62,37.13,-22.65,-22.35,16.95,35.70,118.41,
06/01/2021,01:09:09.69,-281.74,-977.05,-88.38,-6.22,-71.59,44.27,-22.50,-22.20,17.10,35.70,118.41,
06/01/2021,01:09:09.69,-277.34,-960.94,-104.49,-10.49,-83.29,44.63,-23.10,-23.25,14.70,35.60,118.41,
06/01/2021,01:09:09.70,-265.14,-940.43,-90.33,-10.79,-93.78,43.29,-23.10,-23.25,14.70,35.79,118.41,
06/01/2021,01:09:09.71,-277.34,-908.69,-88.87,-13.29,-105.73,45.43,-20.70,-23.70,16.35,35.55,118.41,
06/01/2021,01:09:09.71,-293.46,-872.07,-100.10,-13.90,-113.60,46.46,-20.25,-21.00,13.80,35.75,118.41,
06/01/2021,01:09:09.73,-320.31,-792.97,-127.93,-15.55,-131.22,45.30,-19.95,-23.70,13.80,35.94,118.41,
06/01/2021,01:09:09.73,-326.66,-767.09,-118.16,-11.46,-134.70,51.46,-19.80,-24.30,13.95,35.98,118.41,
06/01/2021,01:09:09.74,-348.14,-743.65,-115.23,-10.30,-131.83,49.57,-19.80,-24.30,13.95,35.75,118.41,
06/01/2021,01:09:09.75,-365.72,-760.25,-163.57,-9.02,-131.40,50.79,-19.80,-24.30,13.95,35.75,118.41,
06/01/2021,01:09:09.75,-378.91,-786.13,-217.77,-13.41,-126.28,52.26,-17.70,-22.65,12.00,35.94,118.41,
06/01/2021,01:09:09.77,-332.03,-861.33,-402.83,-23.48,-107.74,46.10,-17.70,-22.65,12.00,35.60,118.41,
06/01/2021,01:09:09.77,-291.50,-880.37,-431.64,-28.35,-100.12,43.60,-17.85,-24.00,12.60,35.75,118.41,
06/01/2021,01:09:09.78,-293.95,-906.74,-469.24,-31.65,-91.28,39.33,-17.85,-24.00,12.60,35.89,118.41,
06/01/2021,01:09:09.79,-276.86,-879.39,-477.54,-34.88,-84.45,36.95,-16.05,-25.05,11.10,35.89,118.41,
06/01/2021,01:09:09.79,-242.68,-883.30,-494.14,-32.87,-79.82,35.12,-15.15,-24.90,9.00,35.89,118.41,
06/01/2021,01:09:09.81,-168.95,-858.40,-490.23,-29.94,-91.40,28.72,-14.25,-25.50,8.10,35.79,118.41,
06/01/2021,01:09:09.81,-151.37,-849.61,-473.14,-28.17,-99.45,26.40,-13.95,-24.60,10.20,35.94,118.41,
06/01/2021,01:09:09.82,-140.14,-847.66,-471.19,-25.37,-111.83,26.77,-13.95,-24.60,10.20,35.79,118.41,
06/01/2021,01:09:09.83,-164.06,-844.24,-474.61,-24.09,-120.91,20.24,-12.75,-27.00,10.05,35.75,118.41,
06/01/2021,01:09:09.83,-195.31,-819.34,-453.61,-22.26,-128.90,16.52,-12.15,-25.35,7.95,35.46,118.41,
06/01/2021,01:09:09.85,-292.48,-850.10,-424.80,-12.32,-122.32,4.45,-10.65,-25.65,6.45,35.94,118.41,
06/01/2021,01:09:09.85,-319.34,-874.51,-394.04,-12.80,-112.44,-3.96,-10.65,-25.65,6.45,35.75,118.41,
06/01/2021,01:09:09.86,-343.26,-879.39,-384.28,-8.78,-101.52,-10.30,-10.65,-25.65,6.45,35.89,118.41,
06/01/2021,01:09:09.87,-332.52,-881.35,-371.09,-4.27,-86.22,-16.95,-10.65,-26.10,7.65,35.98,118.41,
06/01/2021,01:09:09.87,-346.19,-874.51,-330.57,-3.54,-76.71,-19.82,-10.65,-26.10,7.65,35.60,118.41,
06/01/2021,01:09:09.89,-410.64,-862.79,-300.78,2.50,-48.11,-25.06,-7.65,-26.40,7.95,36.08,118.41,
06/01/2021,01:09:09.89,-423.34,-871.09,-289.06,7.74,-36.95,-26.16,-8.10,-24.90,7.95,35.79,118.41,
06/01/2021,01:09:09.90,-457.03,-875.00,-283.69,9.09,-21.95,-28.29,-8.10,-24.90,7.95,35.89,118.41,
06/01/2021,01:09:09.91,-477.05,-897.95,-271.00,10.37,-9.02,-29.09,-7.50,-25.05,7.35,35.94,118.41,
06/01/2021,01:09:09.94,-436.52,-940.43,-164.06,11.65,57.80,-22.32,-7.95,-27.00,7.05,35.89,118.41,
06/01/2021,01:09:09.96,-404.30,-969.24,-149.90,7.13,58.41,-20.18,-7.95,-25.50,7.05,35.60,118.41,
06/01/2021,01:09:09.97,-447.75,-1000.98,-145.02,7.01,35.24,-7.50,-7.95,-25.50,7.05,35.94,118.41,
06/01/2021,01:09:09.98,-461.43,-1027.83,-142.09,2.68,24.27,-3.17,-8.40,-25.65,7.65,35.79,118.41,
06/01/2021,01:09:09.98,-471.68,-1038.09,-146.97,1.16,14.09,0.00,-8.25,-27.00,7.80,35.79,118.41,
06/01/2021,01:09:09.99,-472.66,-1058.11,-148.44,-0.49,3.35,1.77,-8.25,-27.00,7.80,35.89,118.41,
06/01/2021,01:09:09.99,-480.47,-1071.29,-153.81,-2.32,-5.67,8.48,-7.20,-26.25,6.75,35.79,118.41,
06/01/2021,01:09:10.01,-486.82,-1077.64,-179.20,-5.18,-28.11,13.35,-7.50,-25.05,6.00,35.94,118.41,
06/01/2021,01:09:10.02,-493.65,-1091.80,-208.01,-8.11,-32.01,10.43,-9.15,-26.10,6.90,35.89,118.41,
06/01/2021,01:09:10.02,-472.17,-1124.02,-221.19,-6.22,-34.88,14.15,-8.25,-26.70,6.00,35.79,118.41,
06/01/2021,01:09:10.03,-473.14,-1184.08,-240.72,-6.95,-35.30,14.33,-8.25,-26.70,6.00,35.89,118.41,
06/01/2021,01:09:10.03,-474.12,-1275.39,-240.23,-11.34,-43.48,12.74,-8.25,-26.70,6.00,35.75,118.41,
06/01/2021,01:09:10.05,-525.39,-1475.10,-223.63,-15.24,-48.05,5.98,-5.55,-26.40,4.65,35.75,118.41,
06/01/2021,01:09:10.06,-563.96,-1516.11,-223.63,-16.04,-49.57,8.35,-5.55,-26.40,4.65,35.89,118.41,
06/01/2021,01:09:10.06,-589.84,-1518.07,-191.41,-17.20,-49.02,7.74,-6.15,-25.65,5.85,35.70,118.41,
06/01/2021,01:09:10.07,-595.21,-1451.66,-182.13,-19.15,-43.17,8.84,-6.15,-25.65,5.85,35.70,118.41,
06/01/2021,01:09:10.07,-619.14,-1374.02,-155.76,-19.33,-35.18,7.68,-5.85,-26.10,6.45,35.94,118.41,
06/01/2021,01:09:10.09,-636.72,-1140.62,-155.27,-19.57,2.74,11.95,-3.00,-25.50,4.20,35.89,118.41,
06/01/2021,01:09:10.10,-613.77,-1068.36,-179.69,-16.34,17.26,11.65,-4.50,-25.50,6.00,35.75,118.41,
06/01/2021,01:09:10.10,-603.52,-1025.88,-184.08,-13.90,33.60,17.80,-6.00,-25.50,6.30,35.94,118.41,
06/01/2021,01:09:10.11,-563.96,-980.96,-188.48,-13.66,54.88,23.11,-6.00,-25.50,6.30,35.70,118.41,
06/01/2021,01:09:10.11,-535.16,-949.22,-184.57,-11.04,71.71,25.24,-5.70,-25.80,4.50,35.79,118.41,
06/01/2021,01:09:10.13,-432.62,-918.95,-157.71,-4.45,113.84,32.87,-6.00,-25.05,5.55,35.79,118.41,
06/01/2021,01:09:10.14,-396.00,-919.43,-158.20,-0.49,122.26,37.07,-6.60,-26.10,7.65,35.98,118.41,
06/01/2021,01:09:10.14,-359.38,-935.06,-148.93,-1.34,126.40,37.87,-6.60,-26.10,7.65,35.89,118.41,
06/01/2021,01:09:10.15,-331.05,-958.50,-125.49,-1.89,133.29,39.94,-6.60,-26.10,7.65,35.60,118.41,
06/01/2021,01:09:10.15,-333.98,-970.21,-97.66,-1.71,129.27,46.83,-6.90,-26.10,6.45,35.60,118.41,
06/01/2021,01:09:10.17,-364.75,-1015.14,-97.17,-6.10,108.11,56.40,-6.90,-26.10,6.45,35.94,118.41,
06/01/2021,01:09:10.18,-339.84,-1012.70,-102.05,-9.39,104.82,55.73,-7.95,-25.80,7.05,35.75,118.41,
06/01/2021,01:09:10.18,-353.03,-1035.16,-97.17,-10.24,100.06,56.22,-7.95,-25.80,7.05,35.75,118.41,
06/01/2021,01:09:10.19,-340.33,-1016.11,-75.68,-12.56,92.38,53.78,-6.45,-25.80,6.00,35.75,118.41,
06/01/2021,01:09:10.19,-337.89,-1012.70,-89.36,-13.29,87.87,52.80,-8.25,-26.25,8.10,35.75,118.41,
06/01/2021,01:09:10.20,-334.47,-1012.70,-75.20,-15.55,80.49,50.43,-8.25,-26.25,8.10,35.60,118.41,
06/01/2021,01:09:10.22,-322.27,-1012.21,-55.66,-23.23,56.34,53.17,-7.65,-27.60,6.90,35.89,118.41,
06/01/2021,01:09:10.22,-311.04,-1018.07,-45.90,-24.76,46.59,54.57,-7.65,-27.60,6.90,35.94,118.41,
06/01/2021,01:09:10.23,-323.24,-1015.62,-38.57,-28.48,34.51,54.39,-8.70,-24.75,7.35,35.75,118.41,
06/01/2021,01:09:10.23,-312.50,-1013.67,-37.60,-29.21,26.77,54.82,-8.70,-24.75,7.35,36.08,118.41,
06/01/2021,01:09:10.24,-321.78,-1006.35,-33.20,-31.83,19.39,53.84,-8.70,-24.75,7.35,35.89,118.41,
06/01/2021,01:09:10.26,-330.08,-981.45,-39.06,-38.05,2.87,52.62,-8.40,-26.40,6.15,35.55,118.41,
06/01/2021,01:09:10.26,-337.89,-964.36,-43.95,-37.01,-1.83,49.88,-8.40,-26.40,6.15,35.46,118.41,
06/01/2021,01:09:10.27,-344.73,-943.36,-27.34,-37.80,-4.76,54.33,-7.65,-24.60,6.45,35.98,118.41,
06/01/2021,01:09:10.27,-345.21,-933.59,-21.48,-38.60,-6.46,52.26,-7.20,-25.80,6.75,35.79,118.41,
06/01/2021,01:09:10.28,-343.75,-905.27,-45.41,-35.85,-8.17,54.70,-7.20,-25.80,6.75,35.94,118.41,
06/01/2021,01:09:10.29,-329.10,-875.00,-41.99,-35.85,-8.23,52.32,-7.35,-24.60,7.20,35.70,118.41,
06/01/2021,01:09:10.30,-337.89,-869.14,-27.83,-34.70,-9.15,53.05,-7.35,-24.60,7.20,35.79,118.41,
06/01/2021,01:09:10.31,-326.17,-857.42,-27.83,-31.52,-9.70,54.94,-8.40,-25.65,6.90,35.89,118.41,
06/01/2021,01:09:10.31,-342.29,-851.56,-30.27,-32.44,-8.05,54.45,-8.40,-25.65,6.90,35.79,118.41,
06/01/2021,01:09:10.32,-336.91,-838.38,-30.27,-32.62,-7.68,59.02,-6.45,-25.80,7.80,35.79,118.41,
06/01/2021,01:09:10.33,-340.82,-824.71,-20.51,-24.82,-6.40,59.27,-7.35,-25.65,7.95,35.79,118.41,
06/01/2021,01:09:10.34,-335.45,-826.66,-20.51,-23.66,-7.01,58.66,-7.35,-25.65,7.95,35.60,118.41,
06/01/2021,01:09:10.35,-316.41,-823.24,-22.46,-21.89,-3.35,59.76,-7.35,-25.65,7.95,35.94,118.41,
06/01/2021,01:09:10.35,-320.31,-818.85,-18.07,-23.23,-2.26,60.49,-7.35,-25.65,7.95,35.79,118.41,
06/01/2021,01:09:10.36,-335.94,-815.43,-24.90,-20.55,-3.11,63.05,-7.20,-24.75,6.30,35.89,118.41,
06/01/2021,01:09:10.37,-305.66,-828.61,-17.09,-19.88,-1.04,62.62,-5.70,-26.70,8.10,35.79,118.41,
06/01/2021,01:09:10.38,-306.15,-824.71,-21.00,-18.23,-1.28,59.09,-5.70,-26.70,8.10,35.79,118.41,
06/01/2021,01:09:10.39,-315.43,-822.75,-25.88,-16.22,0.98,60.24,-7.65,-26.10,6.45,35.79,118.41,
06/01/2021,01:09:10.39,-306.15,-829.10,-33.69,-16.04,2.99,56.16,-7.65,-26.10,6.45,35.89,118.41,
06/01/2021,01:09:10.40,-304.20,-826.17,-34.18,-16.04,3.23,56.22,-6.45,-25.50,7.35,35.79,118.41,
06/01/2021,01:09:10.40,-312.01,-837.89,-22.46,-14.09,-0.73,54.82,-5.10,-24.60,6.15,35.79,118.41,
06/01/2021,01:09:10.45,-262.70,-805.66,-12.21,-14.02,-11.22,37.26,-5.70,-27.45,8.10,35.89,118.41,
06/01/2021,01:09:10.46,-269.04,-791.99,-15.14,-15.85,-20.73,32.87,-5.85,-26.10,7.80,35.70,118.41,
06/01/2021,01:09:10.47,-255.86,-792.97,-21.00,-17.20,-19.94,30.98,-5.85,-26.10,7.20,35.89,118.41,
06/01/2021,01:09:10.48,-270.02,-786.62,-3.42,-16.65,-24.63,24.70,-4.95,-26.70,7.80,35.79,118.41,
06/01/2021,01:09:10.48,-252.44,-770.51,-18.55,-16.77,-27.74,23.72,-4.95,-26.70,7.80,35.94,118.41,
06/01/2021,01:09:10.50,-255.37,-765.62,-14.65,-14.45,-38.17,12.99,-4.80,-27.15,7.20,35.55,118.41,
06/01/2021,01:09:10.50,-262.70,-768.07,-24.41,-16.04,-40.30,11.46,-4.35,-27.15,7.20,35.79,118.41,
06/01/2021,01:09:10.51,-271.48,-782.71,-17.58,-13.66,-40.55,7.32,-4.35,-26.85,7.65,35.60,118.41,
06/01/2021,01:09:10.51,-273.44,-778.32,-21.48,-15.85,-44.82,2.20,-5.25,-27.00,7.05,35.60,118.41,
06/01/2021,01:09:10.52,-273.93,-787.11,-41.02,-12.74,-47.26,4.27,-5.25,-27.00,7.05,35.70,118.41,
06/01/2021,01:09:10.54,-281.74,-808.59,-50.78,-12.07,-48.48,-9.88,-3.30,-26.85,5.40,35.70,118.41,
06/01/2021,01:09:10.54,-310.06,-804.69,-47.85,-11.71,-48.60,-15.98,-3.30,-26.85,5.40,36.08,118.41,
06/01/2021,01:09:10.55,-310.06,-806.64,-48.34,-10.30,-48.72,-21.16,-3.30,-26.85,5.40,35.70,118.41,
06/01/2021,01:09:10.55,-303.71,-835.94,-50.78,-7.56,-50.79,-22.44,-3.75,-25.80,6.30,35.75,118.41,
06/01/2021,01:09:10.56,-309.08,-848.14,-58.59,-8.60,-50.18,-30.37,-3.75,-25.80,6.30,35.89,118.41,
06/01/2021,01:09:10.58,-313.96,-894.53,-61.52,-8.96,-49.39,-42.44,-3.45,-26.70,6.00,35.75,118.41,
06/01/2021,01:09:10.58,-327.15,-910.16,-74.22,-4.76,-48.54,-50.43,-3.45,-26.70,6.00,35.75,118.41,
06/01/2021,01:09:10.59,-330.57,-935.55,-82.52,-9.02,-50.24,-54.45,-2.85,-26.85,6.15,35.70,118.41,
06/01/2021,01:09:10.59,-333.98,-937.50,-82.52,-6.34,-49.94,-58.72,-3.00,-26.25,7.35,36.22,118.41,
06/01/2021,01:09:10.60,-331.05,-959.47,-99.61,-7.44,-49.70,-64.39,-3.00,-26.25,7.35,35.79,118.41,
06/01/2021,01:09:10.62,-356.45,-971.68,-115.23,-6.52,-49.33,-76.89,-2.70,-27.45,4.50,35.55,118.41,
06/01/2021,01:09:10.62,-358.89,-969.24,-120.12,-10.85,-47.99,-77.62,-2.70,-27.45,4.50,35.70,118.41,
06/01/2021,01:09:10.63,-362.79,-984.38,-116.70,-8.84,-48.54,-81.83,-3.75,-27.00,6.00,35.70,118.41,
06/01/2021,01:09:10.63,-355.47,-1004.39,-113.77,-8.48,-49.33,-86.40,-3.75,-27.00,6.00,35.60,118.41,
06/01/2021,01:09:10.64,-371.09,-1066.41,-102.05,-9.02,-49.39,-88.60,-3.75,-27.00,6.00,35.94,118.41,
06/01/2021,01:09:10.66,-394.04,-1349.12,-58.11,-5.91,-53.66,-102.13,-2.40,-26.25,6.75,35.75,118.41,
06/01/2021,01:09:10.66,-399.90,-1494.14,-24.90,-6.52,-56.95,-110.79,-2.40,-26.25,6.75,35.94,118.41,
06/01/2021,01:09:10.67,-432.62,-1649.90,-15.62,-6.65,-63.96,-118.96,-2.10,-26.40,6.45,35.55,118.41,
06/01/2021,01:09:10.67,-448.73,-1767.58,14.16,-6.59,-68.96,-126.77,-4.20,-27.00,6.30,35.79,118.41,
06/01/2021,01:09:10.68,-466.80,-1833.01,19.04,-5.91,-74.15,-132.20,-4.20,-27.00,6.30,35.75,118.41,
06/01/2021,01:09:10.69,-479.98,-1803.22,6.35,-7.01,-77.80,-142.62,-3.00,-25.80,6.00,35.27,118.41,
06/01/2021,01:09:10.70,-545.41,-1472.66,-74.22,0.55,-92.87,-148.54,-1.20,-26.25,6.00,35.89,118.41,
06/01/2021,01:09:10.71,-553.71,-1336.91,-141.11,5.91,-94.39,-146.40,-1.20,-26.25,6.00,35.46,118.41,
06/01/2021,01:09:10.71,-591.80,-1230.47,-193.36,12.56,-91.95,-140.85,-3.00,-25.80,6.30,35.89,118.41,
06/01/2021,01:09:10.72,-601.07,-1135.25,-259.77,15.79,-87.87,-138.29,-3.00,-25.80,6.30,35.89,118.41,
06/01/2021,01:09:10.73,-618.65,-1072.75,-313.96,21.04,-77.56,-129.70,-3.00,-25.80,6.30,35.89,118.41,
06/01/2021,01:09:10.74,-622.56,-932.62,-390.14,29.57,-40.67,-112.68,-1.80,-26.40,6.45,35.75,118.41,
06/01/2021,01:09:10.75,-632.32,-902.83,-397.95,32.38,-18.17,-111.22,-3.60,-27.15,7.65,35.79,118.41,
06/01/2021,01:09:10.75,-612.30,-878.42,-379.88,31.28,1.22,-104.94,-2.70,-26.70,7.05,35.70,118.41,
06/01/2021,01:09:10.76,-626.46,-864.26,-382.81,36.83,20.00,-100.85,-2.70,-26.70,7.05,35.89,118.41,
06/01/2021,01:09:10.77,-618.65,-855.96,-365.72,37.74,39.57,-97.20,-3.75,-27.45,8.10,35.89,118.41,
06/01/2021,01:09:10.78,-590.33,-865.23,-336.43,39.82,81.16,-82.93,-1.65,-25.80,6.75,35.55,118.41,
06/01/2021,01:09:10.79,-582.52,-863.28,-301.76,37.44,89.15,-78.54,-6.00,-28.95,9.30,35.98,118.41,
06/01/2021,01:09:10.79,-590.33,-881.35,-292.97,38.29,98.29,-71.34,-6.00,-28.95,9.30,35.70,118.41,
06/01/2021,01:09:10.80,-563.96,-885.25,-284.18,35.67,102.20,-66.71,-6.00,-28.95,9.30,35.89,118.41,
06/01/2021,01:09:10.81,-560.55,-889.65,-255.86,29.82,107.56,-58.29,-5.55,-27.15,7.65,35.89,118.41,
06/01/2021,01:09:10.82,-516.60,-929.20,-264.16,23.60,103.96,-43.17,-5.55,-27.15,7.65,35.55,118.41,
06/01/2021,01:09:10.83,-481.45,-938.96,-286.62,16.28,96.16,-39.70,-7.35,-29.10,9.45,35.60,118.41,
06/01/2021,01:09:10.83,-422.85,-942.38,-283.69,12.74,85.73,-35.43,-7.35,-29.10,9.45,35.46,118.41,
06/01/2021,01:09:10.84,-365.72,-947.27,-289.55,7.44,66.83,-31.10,-7.35,-29.10,9.45,35.79,118.41,
06/01/2021,01:09:10.85,-322.75,-967.77,-271.97,0.49,43.72,-26.89,-8.25,-27.45,7.80,35.79,118.41,
06/01/2021,01:09:10.86,-245.12,-957.52,-197.27,-12.87,-34.88,-11.10,-6.75,-26.70,6.00,35.60,118.41,
06/01/2021,01:09:10.87,-261.23,-956.05,-159.18,-18.90,-65.98,-4.27,-7.65,-29.85,10.20,35.41,118.41,
06/01/2021,01:09:10.87,-266.11,-951.66,-151.86,-21.04,-92.50,3.54,-7.65,-28.80,7.20,35.75,118.41,
06/01/2021,01:09:10.88,-315.92,-925.29,-158.69,-25.49,-120.55,10.43,-7.65,-28.80,7.20,35.98,118.41,
06/01/2021,01:09:10.89,-363.28,-904.79,-167.97,-26.22,-138.90,18.54,-8.25,-28.95,7.05,35.60,118.41,
06/01/2021,01:09:10.90,-464.36,-848.63,-168.46,-28.72,-158.90,22.01,-5.25,-27.45,8.10,35.60,118.41,
06/01/2021,01:09:10.91,-496.58,-827.15,-174.32,-31.59,-161.77,28.35,-5.25,-27.45,8.10,35.55,118.41,
06/01/2021,01:09:10.91,-516.60,-811.04,-170.41,-31.59,-161.89,28.78,-4.05,-28.05,7.20,35.75,118.41,
06/01/2021,01:09:10.92,-530.76,-791.50,-159.18,-29.94,-156.59,28.35,-4.05,-28.05,7.20,35.79,118.41,
06/01/2021,01:09:10.96,-570.80,-773.44,-148.93,-17.38,-90.79,39.76,-1.80,-28.05,6.45,35.89,118.41,
06/01/2021,01:09:10.98,-550.78,-787.11,-188.96,-3.78,-5.79,29.45,-1.80,-27.15,7.65,35.60,118.41,
06/01/2021,01:09:10.99,-530.27,-778.32,-201.66,-0.18,14.94,26.22,-0.60,-27.15,7.20,35.60,118.41,
06/01/2021,01:09:10.99,-511.23,-793.95,-192.38,3.96,37.20,22.99,-0.60,-27.15,7.20,35.79,118.41,
06/01/2021,01:09:11.00,-474.61,-807.62,-207.03,7.87,57.62,19.39,-0.60,-27.15,7.20,35.75,118.41,
06/01/2021,01:09:11.00,-429.20,-820.31,-192.38,10.49,74.21,14.76,-0.60,-27.15,7.20,35.79,118.41,
06/01/2021,01:09:11.02,-379.88,-823.24,-166.50,23.41,105.18,3.60,-2.10,-28.35,7.20,35.60,118.41,
06/01/2021,01:09:11.03,-370.12,-841.80,-188.96,23.78,113.41,0.79,-1.05,-28.35,6.90,35.75,118.41,
06/01/2021,01:09:11.03,-359.86,-853.52,-174.32,26.83,117.13,-4.21,-1.05,-28.35,6.90,35.70,118.41,
06/01/2021,01:09:11.04,-333.98,-850.59,-187.01,30.73,122.87,-4.57,-3.00,-29.70,6.75,35.79,118.41,
06/01/2021,01:09:11.04,-344.73,-866.21,-177.25,32.93,129.82,-9.57,-3.00,-29.70,6.75,35.94,118.41,
06/01/2021,01:09:11.05,-331.05,-884.28,-205.08,34.27,132.38,-12.20,-2.40,-28.50,7.05,35.75,118.41,
06/01/2021,01:09:11.07,-317.38,-921.88,-244.14,35.37,140.12,-14.70,-3.60,-28.35,7.20,35.79,118.41,
06/01/2021,01:09:11.07,-286.13,-942.38,-248.05,34.76,142.56,-13.96,-3.60,-28.35,7.20,35.75,118.41,
06/01/2021,01:09:11.08,-285.16,-958.50,-264.65,34.39,141.34,-19.70,-5.25,-30.90,7.35,35.79,118.41,
06/01/2021,01:09:11.08,-265.62,-944.82,-255.37,33.54,139.51,-16.71,-5.25,-30.90,7.35,35.70,118.41,
06/01/2021,01:09:11.09,-271.97,-968.26,-245.12,33.72,134.15,-13.84,-5.25,-30.90,7.35,35.55,118.41,
06/01/2021,01:09:11.11,-284.67,-961.91,-241.21,27.50,112.32,-4.02,-4.50,-30.45,7.80,35.89,118.41,
06/01/2021,01:09:11.11,-296.39,-950.20,-227.05,29.70,105.61,-0.06,-4.50,-30.45,7.80,35.79,118.41,
06/01/2021,01:09:11.12,-306.64,-953.12,-240.72,26.40,98.54,4.51,-7.50,-30.90,9.60,35.89,118.41,
06/01/2021,01:09:11.12,-300.78,-964.84,-230.96,25.67,89.94,11.89,-7.50,-30.90,9.60,35.79,118.41,
06/01/2021,01:09:11.13,-301.76,-962.89,-239.26,21.71,86.16,13.84,-9.00,-30.45,8.55,35.75,118.41,
06/01/2021,01:09:11.15,-310.55,-997.56,-258.30,20.37,75.55,21.59,-8.85,-33.00,10.95,35.75,118.41,
06/01/2021,01:09:11.15,-312.01,-1004.88,-260.74,17.26,75.91,26.65,-8.85,-33.00,10.95,35.79,118.41,
06/01/2021,01:09:11.16,-305.66,-1000.49,-246.09,16.04,73.17,32.80,-8.70,-31.65,9.60,35.46,118.41,
06/01/2021,01:09:11.16,-314.45,-1018.07,-242.19,11.10,68.48,34.45,-8.70,-31.65,9.60,35.70,118.41,
06/01/2021,01:09:11.17,-319.82,-1012.21,-226.56,10.43,63.23,39.82,-8.25,-31.95,11.10,35.70,118.41,
06/01/2021,01:09:11.19,-315.92,-1007.32,-205.57,2.44,51.46,47.44,-8.85,-32.25,10.20,35.79,118.41,
06/01/2021,01:09:11.19,-317.38,-1021.97,-188.96,2.68,44.27,50.79,-8.85,-32.25,10.20,35.89,118.41,
06/01/2021,01:09:11.20,-312.99,-995.61,-202.64,0.49,40.30,52.20,-8.85,-32.25,10.20,35.75,118.41,
06/01/2021,01:09:11.20,-319.82,-1016.60,-198.73,1.77,33.35,56.89,-8.85,-32.25,10.20,35.94,118.41,
06/01/2021,01:09:11.21,-331.05,-1058.59,-209.96,-0.61,30.61,56.34,-9.00,-34.65,10.05,35.89,118.41,
06/01/2021,01:09:11.23,-382.32,-1327.64,-239.75,-1.83,22.50,54.27,-8.10,-33.30,9.75,35.60,118.41,
06/01/2021,01:09:11.23,-380.86,-1474.61,-255.37,-4.15,22.44,52.01,-8.10,-33.30,9.75,35.89,118.41,
06/01/2021,01:09:11.24,-405.27,-1591.80,-259.77,-9.63,20.73,45.49,-7.65,-32.55,9.00,35.79,118.41,
06/01/2021,01:09:11.24,-448.73,-1684.08,-229.00,-11.52,18.96,40.67,-7.65,-32.55,9.00,35.89,118.41,
06/01/2021,01:09:11.25,-462.89,-1716.31,-218.26,-18.05,19.27,32.44,-9.30,-33.90,9.30,35.75,118.41,
06/01/2021,01:09:11.27,-504.39,-1468.26,-148.44,-33.11,9.02,23.90,-9.75,-35.55,10.65,35.79,118.41,
06/01/2021,01:09:11.27,-500.49,-1342.77,-136.72,-34.21,7.32,24.63,-9.75,-35.55,10.65,35.79,118.41,
06/01/2021,01:09:11.28,-478.52,-1234.86,-110.84,-38.60,4.82,28.66,-7.50,-32.85,9.60,35.89,118.41,
06/01/2021,01:09:11.28,-494.14,-1153.32,-115.23,-35.67,-4.51,31.89,-7.50,-32.85,9.60,35.75,118.41,
06/01/2021,01:09:11.29,-472.17,-1102.05,-118.65,-37.07,-8.41,40.91,-7.50,-32.85,9.60,35.79,118.41,
06/01/2021,01:09:11.30,-465.82,-1056.64,-133.79,-39.57,-11.46,45.67,-7.50,-32.40,8.10,35.75,118.41,
06/01/2021,01:09:11.31,-446.78,-1040.53,-116.70,-40.30,-12.01,65.67,-7.50,-32.40,8.10,35.75,118.41,
06/01/2021,01:09:11.32,-427.73,-1053.71,-146.48,-38.54,-10.18,70.06,-8.25,-32.40,10.35,35.60,118.41,
06/01/2021,01:09:11.32,-433.11,-1071.78,-137.70,-40.73,-6.34,79.21,-8.25,-32.40,10.35,35.55,118.41,
06/01/2021,01:09:11.33,-427.25,-1102.05,-140.14,-40.00,0.37,81.10,-7.50,-33.15,7.80,35.60,118.41,
06/01/2021,01:09:11.34,-431.64,-1129.88,-128.91,-40.91,6.34,87.74,-6.60,-31.80,7.65,35.60,118.41,
06/01/2021,01:09:11.35,-404.30,-1127.93,-103.52,-47.20,15.61,92.99,-6.60,-33.30,8.40,35.70,118.41,
06/01/2021,01:09:11.36,-387.70,-1115.72,-84.96,-49.02,15.98,93.84,-6.60,-32.25,9.00,35.75,118.41,
06/01/2021,01:09:11.36,-361.82,-1109.86,-54.69,-51.71,15.43,93.78,-6.60,-32.25,9.00,35.89,118.41,
06/01/2021,01:09:11.37,-361.33,-1094.24,-62.01,-50.12,11.59,97.62,-5.70,-32.85,8.10,35.75,118.41,
06/01/2021,01:09:11.38,-361.33,-1087.89,-65.43,-50.73,7.13,98.17,-5.70,-32.85,8.10,35.79,118.41,
06/01/2021,01:09:11.39,-346.68,-1084.96,-33.20,-52.87,-7.01,103.11,-4.35,-32.25,6.90,35.75,118.41,
06/01/2021,01:09:11.40,-336.91,-1083.01,-62.50,-53.48,-9.70,103.48,-4.35,-32.25,6.90,35.55,118.41,
06/01/2021,01:09:11.40,-349.12,-1074.71,-31.74,-52.87,-13.72,102.93,-4.35,-32.25,6.90,35.75,118.41,
06/01/2021,01:09:11.41,-339.84,-1071.29,-47.85,-54.21,-17.26,108.72,-2.70,-31.65,7.35,35.60,118.41,
06/01/2021,01:09:11.42,-312.50,-1050.78,-19.04,-54.82,-20.98,103.29,-2.70,-31.65,7.35,35.94,118.41,
06/01/2021,01:09:11.46,-291.50,-930.18,1.95,-41.22,-35.73,102.87,-1.20,-31.65,6.30,35.46,118.41,
06/01/2021,01:09:11.48,-287.60,-866.70,-19.04,-36.46,-36.95,95.43,-1.20,-31.65,6.30,35.70,118.41,
06/01/2021,01:09:11.48,-290.04,-834.96,-10.74,-33.11,-34.82,92.44,0.00,-31.80,5.40,35.79,118.41,
06/01/2021,01:09:11.49,-293.46,-808.59,-16.11,-30.61,-32.44,88.41,0.00,-31.80,5.40,35.55,118.41,
06/01/2021,01:09:11.49,-307.13,-790.53,-36.62,-28.29,-31.59,86.34,0.00,-31.80,5.40,35.79,118.41,
06/01/2021,01:09:11.51,-311.52,-744.14,-54.20,-18.90,-15.37,77.93,0.45,-30.90,5.25,35.79,118.41,
06/01/2021,01:09:11.51,-327.15,-739.75,-50.78,-19.57,-10.61,75.18,0.45,-30.90,5.25,35.75,118.41,
06/01/2021,01:09:11.52,-308.11,-730.96,-51.27,-16.59,-3.05,72.44,0.45,-30.90,6.30,35.94,118.41,
06/01/2021,01:09:11.53,-316.89,-729.00,-54.20,-14.70,2.20,68.72,37.80,-30.90,6.30,35.94,118.41,
06/01/2021,01:09:11.53,-315.43,-741.70,-53.22,-11.95,6.40,65.18,-0.60,-30.30,5.85,35.75,118.41,
06/01/2021,01:09:11.55,-286.13,-767.09,-52.25,-9.57,18.66,52.44,1.20,-28.95,6.75,35.94,118.41,
06/01/2021,01:09:11.55,-274.41,-771.48,-46.88,-8.90,20.43,53.84,1.20,-28.95,6.75,35.94,118.41,
06/01/2021,01:09:11.56,-260.74,-778.81,-59.08,-9.21,25.24,49.33,1.20,-28.95,6.75,35.94,118.41,
06/01/2021,01:09:11.57,-261.23,-776.37,-56.15,-9.39,23.23,42.68,1.20,-28.95,6.75,35.89,118.41,
06/01/2021,01:09:11.57,-254.88,-782.23,-53.22,-5.67,25.55,41.83,1.35,-29.85,5.85,35.89,118.41,
06/01/2021,01:09:11.58,-245.61,-782.23,-60.06,-6.65,24.27,37.07,1.35,-29.85,5.85,35.70,118.41,
06/01/2021,01:09:11.59,-248.05,-796.39,-76.66,-8.60,23.23,26.52,0.15,-29.70,4.50,35.60,118.41,
06/01/2021,01:09:11.60,-228.03,-785.16,-73.24,-7.50,21.83,23.78,1.95,-29.40,6.30,35.70,118.41,
06/01/2021,01:09:11.61,-238.77,-796.39,-64.45,-9.09,21.16,19.82,1.95,-29.40,6.30,35.89,118.41,
06/01/2021,01:09:11.61,-237.30,-796.88,-61.52,-8.78,19.88,13.72,2.10,-29.85,6.15,35.94,118.41,
06/01/2021,01:09:11.62,-222.66,-792.97,-67.38,-12.44,16.22,7.32,1.65,-28.20,4.50,35.94,118.41,
06/01/2021,01:09:11.63,-213.87,-800.29,-71.29,-14.02,6.04,-4.02,0.60,-31.50,5.85,35.75,118.41,
06/01/2021,01:09:11.64,-224.12,-787.11,-68.85,-14.45,-2.44,-6.52,0.90,-29.40,4.80,35.79,118.41,
06/01/2021,01:09:11.64,-199.71,-785.16,-62.01,-15.43,-6.22,-13.41,0.90,-29.40,4.80,35.55,118.41,
06/01/2021,01:09:11.65,-207.52,-788.57,-73.73,-14.82,-13.54,-15.24,0.90,-29.40,4.80,35.75,118.41,
06/01/2021,01:09:11.66,-195.31,-793.95,-81.54,-15.30,-21.65,-20.24,0.90,-29.40,4.80,35.60,118.41,
06/01/2021,01:09:11.67,-210.94,-801.27,-92.77,-17.01,-39.82,-29.21,2.55,-28.80,5.85,35.79,118.41,
06/01/2021,01:09:11.68,-220.70,-804.20,-86.43,-17.13,-48.17,-37.99,1.95,-29.70,4.20,35.79,118.41,
06/01/2021,01:09:11.68,-220.70,-808.11,-82.03,-19.70,-52.87,-37.44,1.95,-29.70,4.20,35.79,118.41,
06/01/2021,01:09:11.69,-234.38,-828.61,-82.03,-19.09,-60.91,-44.02,1.80,-30.30,5.40,35.89,118.41,
06/01/2021,01:09:11.70,-225.59,-827.64,-98.14,-18.48,-66.04,-47.20,1.80,-30.30,5.40,35.89,118.41,
06/01/2021,01:09:11.72,-277.34,-872.56,-102.05,-18.66,-76.22,-68.17,2.55,-30.75,5.85,35.79,118.41,
06/01/2021,01:09:11.73,-297.85,-894.04,-105.47,-16.59,-77.32,-73.11,2.55,-30.75,5.85,35.89,118.41,
06/01/2021,01:09:11.73,-293.95,-910.16,-119.14,-17.20,-77.01,-81.22,3.75,-29.40,6.00,35.79,118.41,
06/01/2021,01:09:11.74,-301.76,-916.50,-114.26,-15.67,-76.34,-84.27,1.65,-28.95,6.30,35.89,118.41,
06/01/2021,01:09:11.75,-315.43,-932.13,-130.86,-15.37,-76.04,-94.57,1.65,-28.95,6.30,35.79,118.41,
06/01/2021,01:09:11.75,-314.45,-953.61,-146.48,-17.07,-75.24,-100.73,4.80,-29.10,5.40,35.60,118.41,
06/01/2021,01:09:11.77,-343.26,-997.07,-148.44,-15.30,-70.49,-117.32,4.80,-29.10,5.40,35.89,118.41,
06/01/2021,01:09:11.77,-318.85,-1031.25,-143.07,-11.59,-67.32,-124.27,1.95,-28.50,6.75,35.79,118.41,
06/01/2021,01:09:11.78,-335.45,-1095.21,-124.02,-12.38,-68.66,-130.79,1.95,-28.50,6.75,35.70,118.41,
06/01/2021,01:09:11.79,-330.08,-1192.38,-104.98,-8.29,-71.52,-139.76,1.95,-28.50,6.75,35.89,118.41,
06/01/2021,01:09:11.79,-341.31,-1282.71,-112.30,-8.78,-70.12,-150.37,2.10,-28.35,5.85,35.94,118.41,
06/01/2021,01:09:11.81,-402.83,-1583.01,-76.17,-9.27,-75.85,-179.94,3.30,-31.05,6.15,35.79,118.41,
06/01/2021,01:09:11.81,-429.20,-1653.32,-73.24,-7.01,-76.95,-191.16,3.30,-31.05,6.15,35.55,118.41,
06/01/2021,01:09:11.82,-465.33,-1712.89,-41.02,-8.17,-83.72,-199.27,1.65,-28.95,6.00,35.79,118.41,
06/01/2021,01:09:11.83,-498.05,-1748.05,-83.01,-6.89,-90.55,-207.56,1.65,-28.95,6.00,35.70,118.41,
06/01/2021,01:09:11.83,-509.77,-1744.63,-104.49,-5.61,-94.82,-213.60,2.10,-30.30,5.40,35.55,118.41,
06/01/2021,01:09:11.85,-604.98,-1615.72,-187.99,0.18,-96.83,-222.62,3.45,-29.40,4.50,35.94,118.41,
06/01/2021,01:09:11.85,-627.44,-1556.15,-243.65,2.26,-97.26,-218.05,3.45,-29.40,4.50,35.79,118.41,
06/01/2021,01:09:11.86,-650.88,-1484.38,-298.83,2.99,-92.38,-213.72,1.65,-30.90,5.55,35.94,118.41,
06/01/2021,01:09:11.87,-699.71,-1428.22,-322.75,4.21,-88.84,-209.51,1.65,-30.90,5.55,35.94,118.41,
06/01/2021,01:09:11.87,-700.20,-1354.98,-350.59,4.45,-81.10,-200.06,1.65,-30.90,5.55,35.94,118.41,
06/01/2021,01:09:11.89,-720.70,-1098.63,-363.28,1.52,-51.28,-171.77,2.40,-30.45,4.50,35.70,118.41,
06/01/2021,01:09:11.89,-697.27,-986.33,-369.63,1.71,-39.09,-160.12,0.45,-30.45,4.50,35.75,118.41,
06/01/2021,01:09:11.90,-672.85,-913.57,-370.12,5.18,-24.33,-147.32,-0.90,-32.40,6.30,35.79,118.41,
06/01/2021,01:09:11.91,-676.76,-849.61,-348.14,5.37,-12.80,-135.00,-0.90,-32.40,6.30,35.75,118.41,
06/01/2021,01:09:11.91,-669.92,-791.02,-339.84,5.67,0.67,-119.33,0.60,-31.05,5.85,35.70,118.41,
06/01/2021,01:09:11.93,-579.59,-785.64,-301.27,7.80,33.84,-78.48,0.15,-30.15,4.20,35.75,118.41,
06/01/2021,01:09:11.93,-519.04,-819.82,-285.16,8.11,41.71,-65.30,-2.40,-30.45,6.00,35.55,118.41,
06/01/2021,01:09:11.99,-327.15,-915.04,-83.50,-28.54,-22.32,7.13,-3.45,-32.40,6.75,35.79,118.40,
06/01/2021,01:09:12.00,-291.50,-920.90,-90.33,-37.68,-66.40,19.70,-3.30,-30.75,6.45,35.70,118.40,
06/01/2021,01:09:12.01,-277.83,-924.80,-81.05,-44.27,-83.96,25.49,-0.30,-31.05,5.40,35.70,118.40,
06/01/2021,01:09:12.02,-277.83,-920.90,-76.66,-54.57,-127.50,34.02,-1.35,-28.35,4.65,35.60,118.40,
06/01/2021,01:09:12.03,-291.02,-913.09,-67.38,-57.50,-145.43,39.33,-1.35,-28.35,4.65,35.79,118.40,
06/01/2021,01:09:12.04,-286.13,-913.09,-68.85,-62.13,-158.29,41.10,-1.35,-28.35,4.65,35.79,118.40,
06/01/2021,01:09:12.04,-303.71,-878.91,-42.48,-67.80,-174.15,43.66,1.05,-29.10,6.15,35.55,118.40,
06/01/2021,01:09:12.05,-294.43,-858.40,-42.48,-67.80,-190.55,47.26,1.05,-29.10,6.15,35.55,118.40,
06/01/2021,01:09:12.06,-317.87,-790.53,-14.16,-69.94,-218.84,52.99,2.40,-28.50,3.75,35.94,118.40,
06/01/2021,01:09:12.07,-322.75,-786.13,-22.95,-70.30,-229.94,57.50,3.00,-29.70,5.55,35.70,118.40,
06/01/2021,01:09:12.08,-336.43,-750.49,4.88,-67.62,-238.17,58.05,3.00,-29.70,5.55,35.98,118.40,
06/01/2021,01:09:12.08,-360.84,-738.28,0.49,-69.27,-242.93,56.04,4.05,-28.05,5.40,35.75,118.40,
06/01/2021,01:09:12.09,-337.40,-729.00,-3.42,-67.32,-248.17,58.72,4.05,-28.05,5.40,35.75,118.40,
06/01/2021,01:09:12.09,-367.68,-698.24,10.25,-63.35,-250.79,59.57,6.90,-27.60,3.90,35.60,118.40,
06/01/2021,01:09:12.11,-394.53,-689.45,9.28,-51.28,-249.15,58.17,8.85,-26.85,5.10,35.70,118.40,
06/01/2021,01:09:12.12,-404.30,-682.13,-8.30,-47.50,-242.26,57.56,8.85,-26.85,5.10,35.60,118.40,
06/01/2021,01:09:12.12,-419.43,-672.36,-10.74,-41.04,-233.60,55.91,8.85,-26.85,5.10,35.79,118.40,
06/01/2021,01:09:12.13,-413.57,-687.01,-21.48,-40.06,-223.60,52.20,8.85,-26.85,5.10,35.75,118.40,
06/01/2021,01:09:12.13,-426.76,-692.38,-23.93,-35.18,-211.22,49.76,11.25,-26.70,5.55,35.60,118.40,
06/01/2021,01:09:12.15,-458.50,-711.43,-52.25,-18.48,-175.49,38.54,14.55,-26.25,7.35,35.55,118.40,
06/01/2021,01:09:12.16,-467.29,-720.70,-51.76,-13.78,-161.22,33.48,14.55,-26.25,7.35,35.89,118.40,
06/01/2021,01:09:12.16,-455.08,-723.63,-65.92,-7.74,-147.13,32.20,13.20,-25.65,6.45,35.75,118.40,
06/01/2021,01:09:12.17,-458.01,-728.03,-69.82,0.00,-129.76,26.04,13.20,-25.65,6.45,35.60,118.40,
06/01/2021,01:09:12.17,-473.14,-741.21,-85.94,3.11,-114.63,21.10,15.45,-26.10,7.95,35.89,118.40,
06/01/2021,01:09:12.19,-518.55,-766.60,-108.89,17.87,-68.05,9.02,17.10,-25.80,7.05,35.79,118.40,
06/01/2021,01:09:12.20,-507.32,-791.02,-137.21,23.17,-47.44,6.46,17.10,-25.80,7.05,35.55,118.40,
06/01/2021,01:09:12.20,-515.14,-804.69,-176.27,25.79,-24.33,1.77,15.60,-27.00,8.55,35.55,118.40,
06/01/2021,01:09:12.21,-513.67,-837.40,-212.40,30.12,-4.70,-2.07,15.60,-27.00,8.55,35.79,118.40,
06/01/2021,01:09:12.21,-503.42,-836.91,-250.98,32.44,20.61,-5.73,19.05,-26.70,8.85,35.60,118.41,
06/01/2021,01:09:12.23,-448.24,-911.62,-361.82,36.22,82.62,-14.15,15.90,-25.35,6.90,35.79,118.40,
06/01/2021,01:09:12.24,-426.76,-924.80,-394.53,39.45,98.17,-20.37,15.90,-25.35,6.90,35.79,118.40,
06/01/2021,01:09:12.24,-423.34,-935.06,-425.78,39.82,113.96,-19.27,16.05,-25.80,6.75,35.60,118.40,
06/01/2021,01:09:12.25,-388.18,-958.50,-447.27,39.21,125.37,-18.84,16.05,-25.80,6.75,36.08,118.41,
06/01/2021,01:09:12.25,-354.00,-991.21,-480.96,40.43,132.20,-17.68,16.05,-25.80,6.75,35.55,118.41,
06/01/2021,01:09:12.27,-296.39,-1106.45,-657.23,29.27,124.33,-7.07,14.70,-28.80,7.95,35.94,118.40,
06/01/2021,01:09:12.28,-246.58,-1205.08,-844.24,16.71,101.16,-1.83,14.70,-28.80,7.95,35.60,118.40,
06/01/2021,01:09:12.28,-222.66,-1258.30,-974.12,7.38,56.77,0.61,14.25,-26.70,7.35,35.94,118.41,
06/01/2021,01:09:12.29,-145.02,-1252.93,-1028.32,-3.48,-1.46,5.06,14.25,-26.70,7.35,36.08,118.41,
06/01/2021,01:09:12.29,-137.21,-1206.54,-1089.36,-10.79,-54.02,11.16,15.30,-27.00,6.75,35.75,118.41,
06/01/2021,01:09:12.31,-252.44,-1099.61,-923.34,-30.73,-150.61,26.10,14.70,-27.60,7.20,35.60,118.40,
06/01/2021,01:09:12.32,-309.57,-1096.68,-830.57,-32.74,-176.04,28.78,14.70,-27.60,7.20,35.60,118.41,
06/01/2021,01:09:12.32,-356.93,-1056.64,-755.37,-35.00,-195.79,34.57,14.70,-27.60,7.20,35.75,118.41,
06/01/2021,01:09:12.33,-411.62,-1002.44,-714.36,-34.88,-208.11,37.01,14.70,-27.60,7.20,35.70,118.41,
06/01/2021,01:09:12.33,-468.26,-987.79,-675.29,-36.77,-215.67,40.85,16.95,-26.85,8.40,35.60,118.41,
06/01/2021,01:09:12.35,-574.71,-1142.58,-549.32,-32.74,-183.17,35.67,17.85,-25.80,9.30,35.60,118.41,
06/01/2021,01:09:12.36,-608.89,-1246.09,-541.02,-33.17,-158.17,28.35,17.85,-25.80,9.30,35.98,118.41,
06/01/2021,01:09:12.36,-627.93,-1327.64,-506.35,-35.00,-120.43,19.63,18.45,-25.35,8.40,35.89,118.41,
06/01/2021,01:09:12.37,-683.59,-1353.03,-475.10,-36.77,-80.00,8.35,18.45,-25.35,8.40,35.79,118.41,
06/01/2021,01:09:12.37,-708.50,-1374.02,-442.38,-40.12,-33.41,0.06,20.55,-25.80,9.60,35.98,118.41,
06/01/2021,01:09:12.38,-706.05,-1401.37,-348.63,-40.18,8.72,-4.57,21.00,-25.65,9.75,35.55,118.41,
06/01/2021,01:09:12.40,-661.62,-1394.53,-157.71,-42.74,70.85,-25.79,21.75,-26.40,9.45,35.89,118.41,
06/01/2021,01:09:12.40,-621.58,-1349.12,-121.09,-45.18,75.61,-28.48,20.25,-26.40,11.70,35.75,118.41,
06/01/2021,01:09:12.41,-580.57,-1295.90,-43.95,-48.23,71.52,-26.95,20.25,-26.40,11.70,35.70,118.41,
06/01/2021,01:09:12.42,-536.13,-1222.66,-19.53,-51.59,65.00,-24.33,20.25,-26.40,11.70,35.89,118.41,
06/01/2021,01:09:12.42,-494.14,-1142.09,16.60,-51.65,54.82,-17.20,20.55,-27.00,10.35,35.79,118.41,
06/01/2021,01:09:12.44,-411.62,-996.09,-0.98,-51.59,21.52,-2.80,20.55,-27.00,10.35,35.79,118.41,
06/01/2021,01:09:12.44,-394.53,-979.98,-20.51,-53.05,14.21,3.78,17.70,-25.35,9.45,35.89,118.41,
06/01/2021,01:09:12.48,-335.94,-1031.25,-101.56,-59.21,-13.96,43.60,17.85,-25.50,7.35,35.75,118.40,
06/01/2021,01:09:12.49,-312.99,-989.75,-76.66,-64.70,-18.90,52.32,19.20,-23.40,9.00,35.79,118.40,
06/01/2021,01:09:12.50,-325.20,-967.77,-67.38,-65.55,-24.82,55.98,19.20,-23.40,9.00,35.55,118.40,
06/01/2021,01:09:12.51,-328.12,-945.31,-51.76,-64.94,-41.34,67.38,19.05,-23.55,7.35,35.79,118.40,
06/01/2021,01:09:12.52,-335.94,-965.82,-53.22,-66.65,-45.73,68.60,19.05,-23.55,7.35,35.70,118.40,
06/01/2021,01:09:12.53,-344.73,-956.05,-50.78,-68.17,-54.33,68.54,19.05,-23.55,7.35,35.55,118.40,
06/01/2021,01:09:12.53,-345.21,-986.33,-45.41,-66.16,-61.83,74.02,20.85,-22.05,7.80,35.55,118.40,
06/01/2021,01:09:12.54,-343.26,-1018.55,-40.53,-67.44,-65.98,75.98,20.85,-22.05,7.80,35.70,118.40,
06/01/2021,01:09:12.55,-339.84,-1044.43,-35.16,-67.07,-69.39,75.43,20.10,-21.60,8.10,35.75,118.40,
06/01/2021,01:09:12.56,-345.70,-1029.30,-31.25,-67.44,-72.87,76.95,20.10,-21.60,8.10,35.94,118.40,
06/01/2021,01:09:12.57,-355.47,-1025.88,-25.88,-67.01,-75.12,78.48,21.75,-19.50,7.95,35.89,118.40,
06/01/2021,01:09:12.57,-364.26,-1008.30,-16.60,-67.68,-74.51,73.41,22.35,-19.65,7.05,35.79,118.40,
06/01/2021,01:09:12.58,-356.93,-1000.00,-9.28,-63.78,-72.74,76.34,22.35,-19.65,7.05,35.79,118.40,
06/01/2021,01:09:12.59,-358.40,-962.40,-12.21,-57.80,-71.65,71.46,23.10,-20.55,6.75,35.75,118.40,
06/01/2021,01:09:12.60,-352.54,-928.71,-0.49,-60.06,-69.57,70.06,23.10,-20.55,6.75,35.79,118.40,
06/01/2021,01:09:12.61,-349.61,-925.29,-19.53,-58.35,-69.76,68.41,24.30,-18.45,11.25,35.75,118.40,
06/01/2021,01:09:12.61,-337.89,-900.39,-11.23,-52.01,-64.82,66.16,24.30,-18.45,11.25,35.55,118.40,
06/01/2021,01:09:12.62,-336.43,-890.14,-26.86,-50.43,-64.39,64.88,24.30,-18.45,11.25,35.79,118.40,
06/01/2021,01:09:12.63,-333.01,-846.68,-7.81,-44.21,-50.98,59.21,23.40,-16.20,10.65,35.55,118.40,
06/01/2021,01:09:12.64,-332.52,-833.01,-22.46,-40.67,-50.30,57.20,23.40,-16.20,10.65,35.55,118.40,
06/01/2021,01:09:12.65,-334.47,-828.61,-13.67,-41.28,-45.18,56.40,25.80,-15.75,9.75,35.79,118.40,
06/01/2021,01:09:12.65,-331.05,-815.92,-24.41,-35.49,-36.65,54.33,24.90,-15.90,10.35,35.98,118.40,
06/01/2021,01:09:12.66,-323.73,-821.29,-29.30,-35.37,-35.30,51.52,24.90,-15.90,10.35,36.13,118.40,
06/01/2021,01:09:12.67,-292.97,-814.94,-25.39,-28.54,-27.99,43.90,27.00,-16.50,9.75,35.79,118.40,
06/01/2021,01:09:12.68,-287.11,-803.71,-27.34,-28.05,-25.30,43.54,27.00,-16.50,9.75,35.70,118.40,
06/01/2021,01:09:12.69,-277.83,-807.13,-36.13,-25.24,-24.82,42.20,27.00,-16.50,9.75,35.60,118.40,
06/01/2021,01:09:12.69,-281.74,-804.69,-39.06,-23.54,-24.88,38.54,26.40,-15.90,11.10,35.70,118.40,
06/01/2021,01:09:12.70,-269.53,-797.85,-46.88,-21.95,-26.46,36.22,26.40,-15.90,11.10,35.55,118.40,
06/01/2021,01:09:12.70,-271.97,-814.94,-43.46,-22.50,-24.63,33.41,26.40,-15.90,11.10,35.94,118.40,
06/01/2021,01:09:12.72,-266.60,-798.83,-65.92,-22.32,-23.35,24.76,27.75,-13.35,10.50,35.79,118.40,
06/01/2021,01:09:12.73,-287.60,-807.62,-90.33,-20.91,-22.68,19.02,26.10,-15.90,11.85,35.94,118.40,
06/01/2021,01:09:12.73,-264.65,-799.32,-79.10,-19.76,-23.90,15.98,26.10,-13.50,11.40,35.70,118.40,
06/01/2021,01:09:12.74,-261.23,-795.90,-85.94,-21.59,-22.99,10.06,26.10,-13.50,11.40,35.46,118.40,
06/01/2021,01:09:12.74,-256.35,-795.41,-75.20,-20.98,-19.45,8.72,28.50,-13.35,12.00,35.79,118.40,
06/01/2021,01:09:12.76,-250.00,-772.95,-88.87,-20.49,-26.16,-2.68,28.20,-15.15,10.35,35.60,118.40,
06/01/2021,01:09:12.77,-252.93,-795.41,-95.70,-22.99,-27.80,-7.44,27.30,-14.85,12.30,35.60,118.40,
06/01/2021,01:09:12.77,-258.30,-791.02,-100.59,-21.04,-28.66,-13.90,27.15,-13.20,11.10,35.55,118.40,
06/01/2021,01:09:12.78,-260.25,-786.13,-102.54,-20.67,-27.32,-17.38,27.15,-13.20,11.10,35.60,118.40,
06/01/2021,01:09:12.78,-256.84,-778.32,-91.31,-22.26,-32.13,-21.89,27.45,-14.70,10.65,35.75,118.41,
06/01/2021,01:09:12.80,-237.79,-791.50,-102.54,-25.43,-41.77,-33.05,27.45,-14.70,10.65,35.79,118.40,
06/01/2021,01:09:12.81,-259.28,-797.85,-97.66,-26.71,-45.91,-37.26,27.90,-15.45,12.90,35.75,118.40,
06/01/2021,01:09:12.81,-251.46,-815.43,-115.23,-28.11,-47.20,-42.80,27.90,-15.45,12.90,35.46,118.41,
06/01/2021,01:09:12.82,-257.81,-825.20,-102.54,-30.12,-54.88,-48.54,27.90,-15.45,12.90,35.70,118.41,
06/01/2021,01:09:12.82,-260.25,-848.14,-99.12,-28.90,-59.21,-53.60,26.40,-13.20,12.90,36.08,118.41,
06/01/2021,01:09:12.84,-256.35,-909.18,-87.89,-31.46,-74.02,-66.83,29.85,-14.10,10.20,35.79,118.40,
06/01/2021,01:09:12.85,-262.21,-922.36,-83.50,-30.61,-77.56,-70.43,27.90,-15.15,12.90,35.75,118.41,
06/01/2021,01:09:12.85,-286.13,-942.87,-89.36,-33.29,-83.54,-77.93,27.90,-14.70,13.20,35.60,118.41,
06/01/2021,01:09:12.86,-290.53,-956.05,-92.29,-33.41,-88.23,-83.72,27.90,-14.70,13.20,35.79,118.41,
06/01/2021,01:09:12.86,-291.99,-975.10,-91.80,-36.16,-94.21,-90.79,29.40,-15.90,13.95,35.79,118.41,
06/01/2021,01:09:12.88,-331.05,-982.91,-104.49,-32.62,-106.10,-98.29,31.65,-13.20,12.90,35.75,118.40,
06/01/2021,01:09:12.89,-343.26,-992.68,-121.09,-36.22,-106.71,-105.18,31.65,-13.20,12.90,35.60,118.41,
06/01/2021,01:09:12.89,-351.56,-995.61,-125.00,-33.29,-103.66,-110.37,30.30,-16.05,16.35,35.70,118.41,
06/01/2021,01:09:12.90,-376.46,-991.70,-138.67,-35.67,-103.78,-115.24,30.30,-16.05,16.35,35.89,118.41,
06/01/2021,01:09:12.90,-377.93,-976.07,-151.86,-35.49,-104.82,-116.59,30.30,-16.05,16.35,35.75,118.41,
06/01/2021,01:09:12.92,-399.41,-961.91,-172.36,-36.40,-100.43,-122.07,30.60,-16.05,13.50,35.89,118.41,
06/01/2021,01:09:12.93,-401.86,-962.40,-171.88,-35.55,-97.93,-124.82,30.45,-18.15,16.95,35.79,118.41,
06/01/2021,01:09:12.93,-416.02,-974.61,-157.71,-36.59,-95.91,-128.23,28.65,-18.60,18.00,35.70,118.41,
06/01/2021,01:09:12.94,-409.18,-1016.60,-160.16,-37.13,-92.74,-129.09,28.65,-18.60,18.00,36.08,118.41,
06/01/2021,01:09:12.95,-423.34,-1065.92,-154.79,-38.29,-90.55,-134.57,29.70,-19.65,16.95,35.94,118.41,
06/01/2021,01:09:12.99,-486.82,-1581.05,4.39,-45.37,-107.38,-151.95,30.60,-21.45,17.85,35.70,118.40,
06/01/2021,01:09:13.00,-527.34,-1663.09,24.90,-46.34,-127.68,-153.90,29.70,-22.35,19.80,35.55,118.40,
06/01/2021,01:09:13.01,-543.95,-1653.81,27.34,-48.54,-137.80,-151.22,29.70,-22.35,19.80,35.79,118.40,
06/01/2021,01:09:13.02,-570.31,-1615.23,11.23,-50.37,-149.63,-148.72,29.55,-22.20,21.15,35.75,118.40,
06/01/2021,01:09:13.02,-586.91,-1544.92,-0.98,-50.12,-157.62,-142.93,28.95,-24.00,22.05,35.70,118.40,
06/01/2021,01:09:13.04,-622.07,-1272.46,-58.11,-49.21,-173.23,-117.44,29.70,-24.00,19.50,36.08,118.40,
06/01/2021,01:09:13.05,-611.33,-1165.53,-74.22,-50.12,-175.79,-105.85,28.95,-25.50,21.75,35.60,118.40,
06/01/2021,01:09:13.05,-604.49,-1042.97,-94.73,-48.29,-176.10,-91.77,29.25,-26.10,22.65,35.79,118.40,
06/01/2021,01:09:13.06,-577.64,-940.43,-117.19,-47.07,-175.49,-80.00,29.25,-26.10,22.65,35.79,118.40,
06/01/2021,01:09:13.06,-574.22,-830.57,-135.25,-42.87,-167.13,-67.13,29.25,-26.10,22.65,35.70,118.40,
06/01/2021,01:09:13.08,-491.21,-625.98,-191.89,-38.29,-137.93,-35.67,30.15,-24.75,22.35,35.75,118.40,
06/01/2021,01:09:13.09,-472.66,-613.28,-162.60,-33.84,-125.43,-23.41,30.15,-24.75,22.35,35.98,118.40,
06/01/2021,01:09:13.09,-441.41,-645.51,-155.76,-33.66,-111.46,-14.33,28.65,-25.50,24.60,35.89,118.40,
06/01/2021,01:09:13.10,-424.80,-688.96,-143.55,-30.79,-98.72,-4.57,28.65,-25.50,24.60,35.98,118.40,
06/01/2021,01:09:13.10,-430.18,-748.54,-117.68,-32.01,-91.16,1.77,29.55,-25.65,25.95,36.13,118.40,
06/01/2021,01:09:13.12,-406.25,-921.39,-92.29,-33.17,-83.41,20.12,31.65,-25.80,25.35,35.70,118.40,
06/01/2021,01:09:13.13,-388.18,-957.52,-87.40,-35.00,-82.13,24.94,28.20,-27.45,26.85,35.55,118.40,
06/01/2021,01:09:13.13,-382.81,-973.14,-61.04,-37.56,-86.10,25.98,28.80,-23.40,27.75,35.75,118.40,
06/01/2021,01:09:13.14,-376.46,-989.75,-50.78,-41.04,-92.26,28.54,28.80,-23.40,27.75,35.79,118.40,
06/01/2021,01:09:13.14,-377.93,-988.77,-39.55,-46.16,-98.96,30.18,29.55,-25.65,25.50,35.55,118.40,
06/01/2021,01:09:13.16,-363.77,-988.77,-19.04,-50.67,-117.01,29.39,29.55,-25.65,25.50,35.60,118.40,
06/01/2021,01:09:13.17,-345.21,-987.30,4.39,-55.00,-127.93,28.11,30.15,-25.80,29.70,35.94,118.40,
06/01/2021,01:09:13.17,-367.19,-971.19,-6.84,-55.43,-136.04,30.49,30.15,-25.80,29.70,35.79,118.40,
06/01/2021,01:09:13.18,-358.40,-954.59,-0.98,-55.98,-145.06,29.21,30.15,-25.80,29.70,35.60,118.40,
06/01/2021,01:09:13.18,-344.73,-950.68,15.14,-57.80,-150.67,28.11,30.30,-24.90,29.25,35.79,118.40,
06/01/2021,01:09:13.20,-351.07,-914.06,7.81,-58.60,-167.93,26.65,31.95,-24.30,27.90,35.70,118.40,
06/01/2021,01:09:13.21,-353.03,-891.11,4.39,-57.20,-172.56,22.99,30.30,-26.40,31.35,35.46,118.40,
06/01/2021,01:09:13.21,-347.66,-879.88,-5.86,-58.66,-175.61,22.26,32.70,-24.00,31.20,35.79,118.40,
06/01/2021,01:09:13.22,-353.03,-848.14,-28.81,-54.82,-177.20,23.54,32.70,-24.00,31.20,35.79,118.40,
06/01/2021,01:09:13.22,-357.42,-834.47,-20.51,-51.34,-179.70,20.73,31.80,-24.15,30.30,35.94,118.40,
06/01/2021,01:09:13.24,-374.02,-802.73,-52.73,-45.79,-177.80,21.59,31.35,-24.60,30.60,35.55,118.40,
06/01/2021,01:09:13.25,-375.49,-791.50,-60.55,-42.50,-172.01,22.20,31.35,-24.60,30.60,35.94,118.40,
06/01/2021,01:09:13.25,-379.88,-771.00,-81.05,-38.66,-167.56,17.26,31.80,-22.95,33.60,35.60,118.40,
06/01/2021,01:09:13.26,-393.55,-765.14,-87.89,-34.09,-160.79,18.90,31.80,-22.95,33.60,36.08,118.40,
06/01/2021,01:09:13.27,-406.25,-755.37,-107.91,-29.94,-152.26,16.95,31.80,-22.95,33.60,35.94,118.40,
06/01/2021,01:09:13.28,-413.09,-766.11,-120.61,-22.68,-128.78,17.93,32.40,-22.80,35.25,35.89,118.40,
06/01/2021,01:09:13.29,-409.18,-762.21,-141.60,-19.27,-118.84,15.67,29.55,-25.35,37.95,35.94,118.40,
06/01/2021,01:09:13.29,-393.55,-769.04,-151.86,-17.32,-110.43,16.77,31.95,-23.25,37.05,35.46,118.40,
06/01/2021,01:09:13.30,-390.62,-783.69,-149.90,-14.02,-99.82,15.73,31.95,-23.25,37.05,35.75,118.40,
06/01/2021,01:09:13.31,-382.81,-783.69,-166.99,-10.79,-93.35,16.22,30.60,-22.95,36.15,35.94,118.40,
06/01/2021,01:09:13.32,-381.35,-809.57,-208.01,-5.43,-72.50,14.82,32.40,-23.25,37.05,35.60,118.40,
06/01/2021,01:09:13.33,-375.98,-825.68,-228.52,-1.89,-65.37,18.96,32.55,-22.95,39.75,35.60,118.40,
06/01/2021,01:09:13.33,-383.30,-825.20,-235.35,-1.59,-60.18,16.10,32.55,-22.95,39.75,35.70,118.40,
06/01/2021,01:09:13.34,-371.58,-844.24,-237.79,-1.28,-54.33,13.72,32.55,-22.95,39.75,35.89,118.40,
06/01/2021,01:09:13.35,-387.21,-843.75,-257.32,0.85,-46.40,17.62,30.30,-23.70,39.45,35.75,118.40,
06/01/2021,01:09:13.36,-379.39,-897.95,-326.66,1.46,-28.23,14.39,30.30,-23.70,39.45,35.70,118.40,
06/01/2021,01:09:13.37,-376.46,-918.46,-341.31,0.30,-17.50,11.65,31.35,-25.35,40.20,35.55,118.40,
06/01/2021,01:09:13.37,-366.70,-924.32,-362.79,0.49,-9.02,12.68,31.05,-22.95,37.65,35.55,118.40,
06/01/2021,01:09:13.38,-361.82,-935.06,-376.46,2.07,-3.41,8.17,31.05,-22.95,37.65,35.60,118.40,
06/01/2021,01:09:13.39,-335.45,-924.32,-390.14,0.61,5.43,5.49,30.90,-22.05,39.30,35.79,118.40,
06/01/2021,01:09:13.40,-296.88,-914.06,-411.62,-2.68,16.34,1.59,31.20,-22.35,37.35,35.55,118.40,
06/01/2021,01:09:13.41,-277.83,-929.69,-412.60,-0.73,14.51,0.00,30.30,-22.95,40.95,35.79,118.40,
06/01/2021,01:09:13.41,-265.62,-936.52,-418.46,-5.85,10.98,0.79,28.95,-23.25,39.60,35.55,118.40,
06/01/2021,01:09:13.42,-263.67,-915.53,-432.62,-4.94,6.77,-1.95,28.95,-23.25,39.60,35.60,118.40,
06/01/2021,01:09:13.43,-245.12,-909.67,-440.92,-8.54,1.59,0.98,29.25,-23.70,40.20,35.79,118.41,
06/01/2021,01:09:13.43,-224.61,-927.73,-444.82,-12.74,-2.56,0.91,29.25,-23.70,40.20,35.75,118.41,
06/01/2021,01:09:13.45,-208.01,-902.83,-467.29,-19.63,-25.91,1.40,33.00,-23.25,38.55,35.94,118.40,
06/01/2021,01:09:13.45,-197.75,-907.71,-478.52,-25.24,-38.84,2.80,31.95,-24.30,38.55,35.89,118.40,
06/01/2021,01:09:13.46,-165.53,-890.62,-456.54,-27.13,-47.32,-0.61,31.95,-24.30,38.55,35.60,118.41,
06/01/2021,01:09:13.47,-172.85,-893.07,-416.02,-32.99,-60.79,-1.46,31.95,-24.30,38.55,36.08,118.41,
06/01/2021,01:09:13.50,-257.32,-952.64,-347.17,-52.26,-159.51,2.62,29.85,-23.40,40.95,35.89,118.40,
06/01/2021,01:09:13.52,-381.35,-1013.67,-305.18,-60.43,-203.84,0.67,28.80,-23.70,42.00,35.89,118.40,
06/01/2021,01:09:13.53,-393.55,-1042.48,-304.20,-61.28,-209.88,-0.49,28.80,-23.70,42.00,35.98,118.40,
06/01/2021,01:09:13.54,-422.36,-1073.73,-296.39,-65.55,-213.29,-5.00,28.80,-23.70,42.00,35.89,118.40,
06/01/2021,01:09:13.54,-453.12,-1148.44,-285.16,-67.93,-214.51,-5.30,27.15,-24.00,43.65,35.55,118.40,
06/01/2021,01:09:13.55,-469.24,-1208.01,-262.70,-67.74,-214.57,-8.96,27.15,-24.00,43.65,35.75,118.40,
06/01/2021,01:09:13.57,-493.16,-1314.45,-223.63,-73.29,-207.80,-23.05,25.80,-22.65,47.40,35.89,118.40,
06/01/2021,01:09:13.57,-516.11,-1305.18,-197.27,-73.17,-205.49,-29.33,25.80,-22.65,47.40,35.89,118.40,
06/01/2021,01:09:13.58,-522.95,-1280.76,-194.82,-76.04,-200.85,-31.71,25.50,-23.40,46.80,35.75,118.40,
06/01/2021,01:09:13.58,-542.97,-1231.93,-160.64,-74.57,-190.61,-34.63,24.75,-24.15,47.10,35.55,118.40,
06/01/2021,01:09:13.59,-561.04,-1183.59,-165.04,-72.68,-181.10,-33.84,24.75,-24.15,47.10,35.79,118.40,
06/01/2021,01:09:13.61,-542.97,-1043.46,-168.46,-68.11,-154.02,-33.72,22.65,-24.75,48.75,35.94,118.40,
06/01/2021,01:09:13.61,-531.74,-1007.81,-173.34,-64.88,-143.23,-33.90,22.65,-24.75,48.75,35.55,118.40,
06/01/2021,01:09:13.62,-511.23,-970.21,-182.13,-61.83,-129.63,-31.46,23.40,-24.75,49.50,35.79,118.40,
06/01/2021,01:09:13.62,-491.70,-958.01,-197.75,-56.71,-115.73,-27.87,23.40,-24.75,49.50,35.75,118.40,
06/01/2021,01:09:13.63,-496.09,-915.53,-208.01,-55.49,-101.34,-24.45,23.40,-24.75,49.50,35.79,118.40,
06/01/2021,01:09:13.65,-465.82,-879.39,-231.45,-52.32,-64.09,-14.57,22.95,-25.35,48.90,35.94,118.40,
06/01/2021,01:09:13.65,-455.08,-872.07,-222.17,-51.83,-53.66,-7.99,22.95,-25.35,48.90,35.79,118.40,
06/01/2021,01:09:13.66,-451.66,-869.63,-212.40,-50.00,-43.05,-2.01,21.00,-27.15,50.70,35.60,118.40,
06/01/2021,01:09:13.67,-446.78,-864.26,-203.12,-50.85,-35.18,-0.79,22.20,-26.40,51.45,35.94,118.40,
06/01/2021,01:09:13.67,-446.29,-865.72,-172.85,-51.65,-26.59,4.94,22.20,-26.40,51.45,35.70,118.40,
06/01/2021,01:09:13.69,-398.93,-942.38,-148.44,-51.65,-18.48,11.83,20.55,-26.70,49.80,35.46,118.40,
06/01/2021,01:09:13.69,-390.14,-948.73,-141.60,-54.45,-18.29,14.70,20.70,-27.15,52.65,35.75,118.40,
06/01/2021,01:09:13.70,-370.61,-979.49,-122.56,-54.94,-19.88,13.29,20.70,-27.15,52.65,35.79,118.40,
06/01/2021,01:09:13.71,-363.28,-1014.16,-104.98,-58.78,-26.40,16.77,19.50,-25.65,50.40,35.98,118.40,
06/01/2021,01:09:13.71,-355.96,-1029.30,-86.91,-60.67,-30.49,16.65,19.50,-25.65,50.40,35.79,118.40,
06/01/2021,01:09:13.73,-323.73,-1089.36,-56.15,-69.33,-53.05,17.38,19.80,-28.20,50.25,35.89,118.40,
06/01/2021,01:09:13.73,-310.06,-1112.30,-35.64,-71.40,-64.63,21.46,19.80,-28.20,50.25,35.89,118.40,
06/01/2021,01:09:13.74,-309.57,-1127.93,-34.67,-75.55,-75.55,20.12,19.80,-28.20,50.25,35.75,118.40,
06/01/2021,01:09:13.75,-306.15,-1143.07,-15.14,-80.85,-83.78,21.40,20.85,-27.00,51.00,35.94,118.40,
06/01/2021,01:09:13.75,-308.59,-1155.76,-9.77,-81.83,-94.94,19.82,20.85,-27.00,51.00,35.89,118.40,
06/01/2021,01:09:13.77,-327.15,-1151.37,11.23,-86.71,-124.82,19.15,20.10,-26.70,52.35,36.08,118.40,
06/01/2021,01:09:13.77,-335.45,-1135.25,15.14,-89.15,-132.99,20.91,19.80,-29.70,49.80,35.60,118.40,
06/01/2021,01:09:13.78,-359.86,-1125.49,18.55,-86.22,-140.00,22.01,19.80,-29.70,49.80,35.98,118.40,
06/01/2021,01:09:13.79,-354.98,-1097.66,24.41,-86.22,-145.43,24.39,20.10,-27.45,51.00,35.94,118.40,
06/01/2021,01:09:13.79,-363.77,-1093.26,24.90,-86.16,-151.22,23.96,20.10,-27.45,51.00,35.79,118.40,
06/01/2021,01:09:13.81,-376.46,-1012.70,11.72,-85.06,-157.93,28.05,19.35,-28.50,51.00,35.60,118.40,
06/01/2021,01:09:13.81,-386.23,-983.89,18.07,-82.50,-157.07,27.99,18.00,-29.85,51.15,35.79,118.40,
06/01/2021,01:09:13.82,-390.14,-961.43,11.72,-78.72,-154.70,28.96,18.00,-29.85,51.15,35.70,118.40,
06/01/2021,01:09:13.83,-394.04,-938.96,6.35,-79.33,-152.38,32.13,18.00,-29.85,51.15,35.70,118.40,
06/01/2021,01:09:13.83,-393.55,-917.48,0.00,-76.22,-145.37,33.78,18.00,-29.85,51.15,35.79,118.40,
06/01/2021,01:09:13.85,-400.39,-868.65,-24.90,-65.18,-135.98,39.39,16.05,-30.90,52.35,35.60,118.40,
06/01/2021,01:09:13.85,-395.02,-866.70,-20.51,-64.57,-125.98,39.27,15.15,-28.80,52.95,35.94,118.40,
06/01/2021,01:09:13.86,-399.90,-854.49,-35.16,-62.07,-117.38,39.33,15.15,-28.80,52.95,35.70,118.40,
06/01/2021,01:09:13.87,-387.70,-853.52,-28.81,-58.48,-110.98,41.22,15.90,-29.55,52.20,35.89,118.40,
06/01/2021,01:09:13.87,-387.70,-853.52,-45.90,-59.45,-102.07,40.55,15.90,-29.55,52.20,35.55,118.40,
06/01/2021,01:09:13.89,-364.75,-839.36,-38.09,-51.77,-81.59,43.17,14.85,-29.70,52.80,36.13,118.40,
06/01/2021,01:09:13.89,-340.82,-834.96,-30.76,-50.37,-77.87,41.52,12.90,-29.85,52.95,35.70,118.40,
06/01/2021,01:09:13.90,-334.96,-825.20,-10.74,-50.18,-73.11,41.46,12.90,-29.85,52.95,35.79,118.40,
06/01/2021,01:09:13.91,-320.80,-843.26,-26.86,-48.41,-69.09,39.02,13.20,-30.75,52.95,35.94,118.40,
06/01/2021,01:09:13.91,-320.80,-825.20,-18.55,-45.18,-64.94,37.74,13.20,-30.75,52.95,35.55,118.40,
06/01/2021,01:09:13.93,-286.13,-844.24,-27.34,-43.90,-64.15,29.63,14.70,-31.50,52.20,35.75,118.40,
06/01/2021,01:09:13.94,-291.50,-844.24,-15.62,-43.35,-63.78,20.79,14.70,-31.50,52.20,35.94,118.40,
06/01/2021,01:09:13.94,-278.32,-826.17,-10.25,-46.52,-60.91,17.62,14.70,-31.50,52.20,35.89,118.40,
06/01/2021,01:09:13.95,-270.51,-808.59,-23.93,-45.06,-64.94,13.11,13.20,-29.85,53.70,35.60,118.40,
06/01/2021,01:09:13.95,-272.46,-820.31,-12.70,-44.94,-66.83,5.67,13.20,-29.85,53.70,35.79,118.40,
06/01/2021,01:09:13.97,-269.53,-799.32,-13.67,-42.56,-71.59,-9.33,13.65,-30.30,54.45,35.79,118.40,
06/01/2021,01:09:13.98,-274.41,-797.85,-25.39,-43.23,-73.72,-12.44,13.80,-30.15,53.55,35.79,118.40,
06/01/2021,01:09:14.01,-284.67,-772.46,-24.90,-38.72,-90.98,-50.85,12.45,-31.80,55.80,35.70,118.40,
06/01/2021,01:09:14.03,-312.50,-791.02,-18.55,-37.13,-92.50,-67.50,11.40,-30.75,52.95,35.79,118.40,
06/01/2021,01:09:14.03,-318.36,-805.18,-17.09,-37.50,-90.61,-70.06,11.40,-30.75,52.95,35.79,118.40,
06/01/2021,01:09:14.05,-339.36,-863.28,-15.14,-32.07,-91.34,-88.54,9.30,-33.60,53.55,35.70,118.40,
06/01/2021,01:09:14.05,-330.08,-873.05,-13.67,-30.91,-90.43,-93.54,9.30,-33.60,53.55,35.55,118.40,
06/01/2021,01:09:14.06,-353.03,-882.32,-7.81,-30.73,-88.78,-104.09,8.85,-33.30,52.95,35.79,118.40,
06/01/2021,01:09:14.07,-345.21,-896.97,-6.84,-29.33,-88.54,-104.88,6.90,-32.55,52.95,35.79,118.40,
06/01/2021,01:09:14.07,-362.79,-914.06,-1.46,-25.55,-89.15,-111.59,6.90,-32.55,52.95,35.60,118.40,
06/01/2021,01:09:14.08,-384.28,-931.15,-3.91,-25.79,-86.22,-117.68,7.50,-31.95,52.05,35.89,118.40,
06/01/2021,01:09:14.09,-399.90,-938.96,-29.79,-21.16,-85.55,-127.44,6.60,-34.50,52.65,35.94,118.40,
06/01/2021,01:09:14.10,-425.29,-956.05,-48.83,-18.05,-81.95,-130.24,6.60,-34.50,52.65,35.75,118.40,
06/01/2021,01:09:14.11,-438.48,-961.91,-39.55,-17.13,-77.07,-135.91,3.60,-35.70,54.00,35.89,118.40,
06/01/2021,01:09:14.11,-451.66,-983.40,-58.59,-16.46,-73.72,-138.90,3.60,-35.70,54.00,35.89,118.40,
06/01/2021,01:09:14.12,-452.15,-982.91,-78.61,-15.91,-68.48,-139.39,3.60,-35.70,54.00,35.55,118.40,
06/01/2021,01:09:14.13,-491.70,-1030.76,-86.43,-10.06,-54.76,-144.70,3.30,-33.75,51.90,35.89,118.40,
06/01/2021,01:09:14.14,-503.91,-1035.64,-106.45,-9.09,-53.35,-144.33,1.80,-36.45,53.25,35.46,118.40,
06/01/2021,01:09:14.15,-527.83,-1050.29,-97.66,-9.27,-47.68,-141.22,0.45,-34.65,54.15,35.79,118.40,
06/01/2021,01:09:14.15,-534.67,-1069.82,-109.38,-9.09,-42.07,-144.70,0.45,-34.65,54.15,35.70,118.40,
06/01/2021,01:09:14.16,-535.16,-1099.61,-94.73,-7.44,-36.59,-140.73,0.15,-34.65,52.80,35.75,118.40,
06/01/2021,01:09:14.18,-557.13,-1229.98,-69.82,-4.39,-28.54,-135.49,-0.60,-33.30,52.65,35.79,118.40,
06/01/2021,01:09:14.18,-570.80,-1305.18,-57.13,-1.34,-28.29,-133.11,-1.20,-36.30,54.90,35.70,118.40,
06/01/2021,01:09:14.19,-585.94,-1400.88,-44.43,-2.26,-27.93,-130.91,-1.20,-36.30,54.90,35.79,118.40,
06/01/2021,01:09:14.19,-621.09,-1463.87,-31.74,-1.10,-29.09,-126.22,-1.20,-36.30,54.90,35.79,118.40,
06/01/2021,01:09:14.20,-633.30,-1541.99,-32.71,1.71,-28.84,-119.33,-2.70,-33.60,53.10,35.79,118.40,
06/01/2021,01:09:14.22,-651.37,-1543.95,-49.80,-0.55,-40.79,-101.16,-5.70,-34.65,53.85,35.79,118.40,
06/01/2021,01:09:14.22,-654.30,-1493.65,-51.27,0.98,-47.07,-91.22,-5.70,-34.65,53.85,35.75,118.40,
06/01/2021,01:09:14.23,-646.97,-1450.68,-94.73,-1.59,-50.24,-80.85,-6.15,-33.30,53.70,35.79,118.40,
06/01/2021,01:09:14.23,-636.72,-1382.81,-118.16,0.61,-57.50,-70.55,-6.15,-33.30,53.70,35.60,118.40,
06/01/2021,01:09:14.24,-630.37,-1316.41,-153.81,1.04,-61.59,-60.85,-5.25,-33.60,54.15,35.55,118.40,
06/01/2021,01:09:14.26,-580.08,-1144.53,-235.84,1.59,-61.46,-27.74,-8.25,-35.55,53.55,35.75,118.40,
06/01/2021,01:09:14.26,-551.27,-1054.20,-255.37,3.17,-61.71,-21.10,-8.25,-35.55,53.55,35.70,118.40,
06/01/2021,01:09:14.27,-520.02,-979.49,-271.97,2.99,-56.34,-9.82,-6.15,-34.50,52.65,35.79,118.40,
06/01/2021,01:09:14.27,-515.14,-885.74,-284.67,2.50,-52.50,-0.61,-6.15,-34.50,52.65,35.89,118.40,
06/01/2021,01:09:14.28,-494.14,-812.01,-276.37,3.05,-51.89,6.52,-6.15,-34.50,52.65,35.75,118.40,
06/01/2021,01:09:14.30,-459.47,-644.53,-274.90,-0.73,-41.46,29.82,-6.75,-34.35,51.00,35.75,118.40,
06/01/2021,01:09:14.30,-434.08,-602.05,-261.23,-2.26,-41.16,38.41,-6.75,-34.35,51.00,35.75,118.40,
06/01/2021,01:09:14.31,-436.04,-581.05,-230.96,-0.98,-36.16,45.67,-8.10,-34.50,52.20,35.89,118.40,
06/01/2021,01:09:14.31,-405.76,-594.24,-232.42,-3.41,-35.06,49.70,-8.10,-34.50,52.20,35.75,118.40,
06/01/2021,01:09:14.32,-410.64,-610.35,-225.10,-5.73,-36.04,55.24,-8.10,-34.50,52.20,35.79,118.40,
06/01/2021,01:09:14.34,-389.16,-734.38,-171.39,-10.12,-33.96,61.65,-5.85,-34.50,50.40,35.94,118.40,
06/01/2021,01:09:14.34,-381.35,-786.62,-174.80,-11.28,-36.52,66.95,-6.45,-35.55,53.55,35.60,118.40,
06/01/2021,01:09:14.35,-382.32,-818.85,-157.71,-13.78,-39.02,69.45,-6.45,-35.55,53.10,35.46,118.40,
06/01/2021,01:09:14.35,-361.33,-871.58,-137.70,-18.17,-42.99,66.71,-6.45,-35.55,53.10,35.55,118.40,
06/01/2021,01:09:14.36,-361.82,-906.25,-141.60,-17.62,-48.66,69.33,-7.50,-34.65,53.55,35.75,118.40,
06/01/2021,01:09:14.38,-349.61,-940.43,-99.12,-27.56,-65.73,66.16,-6.90,-34.20,51.45,35.55,118.40,
06/01/2021,01:09:14.38,-345.70,-940.43,-94.73,-28.48,-71.71,63.17,-7.20,-34.65,53.10,35.75,118.40,
06/01/2021,01:09:14.39,-349.12,-954.59,-83.01,-31.28,-79.94,65.43,-7.20,-34.65,53.10,36.08,118.40,
06/01/2021,01:09:14.39,-354.00,-974.61,-89.36,-33.29,-88.48,59.70,-7.20,-34.65,53.10,35.79,118.40,
06/01/2021,01:09:14.40,-343.75,-998.05,-92.77,-33.17,-95.12,57.87,-6.90,-35.25,52.65,35.79,118.40,
06/01/2021,01:09:14.42,-346.19,-999.51,-95.70,-35.91,-106.46,54.51,-6.90,-35.25,52.65,35.75,118.40,
06/01/2021,01:09:14.42,-367.68,-983.40,-113.77,-35.91,-108.05,55.67,-8.10,-34.50,52.65,35.75,118.40,
06/01/2021,01:09:14.43,-352.05,-974.61,-113.28,-34.39,-111.16,52.87,-8.70,-35.55,50.55,35.79,118.40,
06/01/2021,01:09:14.43,-373.05,-956.54,-138.67,-32.74,-113.48,59.27,-8.70,-35.55,50.55,35.79,118.40,
06/01/2021,01:09:14.44,-391.11,-934.08,-137.70,-30.98,-109.45,56.83,-8.25,-37.80,52.05,35.60,118.40,
06/01/2021,01:09:14.46,-394.53,-904.30,-199.22,-21.77,-97.44,55.24,-7.20,-35.55,49.80,36.08,118.40,
06/01/2021,01:09:14.46,-397.95,-888.67,-216.80,-18.96,-84.51,56.65,-8.70,-36.60,52.05,35.89,118.40,
06/01/2021,01:09:14.47,-411.62,-858.89,-226.07,-15.85,-74.27,58.48,-7.35,-36.00,50.70,35.79,118.40,
06/01/2021,01:09:14.47,-477.54,-859.38,-228.03,-11.22,-59.33,60.55,-7.35,-36.00,50.70,35.70,118.40,
06/01/2021,01:09:14.48,-451.17,-883.79,-297.36,-6.89,-42.50,62.01,-7.35,-36.00,50.70,35.46,118.40,
06/01/2021,01:09:14.52,-239.26,-911.13,-429.20,3.05,98.48,44.63,-7.35,-36.90,49.95,35.70,118.40,
06/01/2021,01:09:14.54,-140.14,-915.04,-396.48,3.35,116.34,29.88,-7.65,-36.45,50.40,35.70,118.40,
06/01/2021,01:09:14.54,-110.84,-911.13,-390.62,6.28,113.96,31.83,-7.65,-36.45,50.40,35.75,118.40,
06/01/2021,01:09:14.55,-92.29,-910.16,-376.46,6.52,110.61,26.95,-5.25,-37.05,51.30,35.55,118.40,
06/01/2021,01:09:14.56,-81.05,-892.58,-343.75,6.89,105.91,21.83,-4.35,-36.90,52.20,35.75,118.40,
06/01/2021,01:09:14.56,-75.20,-897.46,-337.40,8.90,94.82,19.21,-4.35,-36.90,52.20,35.94,118.40,
06/01/2021,01:09:14.58,-70.80,-874.51,-303.71,11.04,55.06,13.23,-4.35,-36.00,51.45,35.79,118.40,
06/01/2021,01:09:14.58,-95.70,-878.91,-287.60,11.71,41.40,10.85,-4.35,-36.00,51.45,35.79,118.40,
06/01/2021,01:09:14.59,-107.91,-874.02,-300.78,10.67,24.76,8.90,-4.35,-36.00,51.45,35.70,118.40,
06/01/2021,01:09:14.60,-111.33,-872.56,-296.88,11.83,9.15,7.56,-4.50,-37.05,51.30,35.60,118.40,
06/01/2021,01:09:14.60,-147.46,-880.37,-297.85,13.05,1.22,0.61,-4.50,-37.05,51.30,35.75,118.40,
06/01/2021,01:09:14.62,-202.15,-866.70,-309.08,12.38,-18.17,-7.20,-4.35,-35.25,51.15,35.75,118.40,
06/01/2021,01:09:14.62,-222.66,-865.23,-313.96,13.72,-21.22,-10.49,-4.35,-35.25,51.15,35.89,118.40,
06/01/2021,01:09:14.63,-247.07,-867.19,-306.64,13.90,-19.33,-17.13,-4.05,-36.45,53.25,35.60,118.40,
06/01/2021,01:09:14.64,-252.44,-867.19,-297.85,13.60,-16.71,-19.21,-4.80,-36.45,53.25,35.94,118.40,
06/01/2021,01:09:14.64,-270.02,-871.09,-312.50,14.33,-13.23,-25.00,-4.80,-36.45,52.20,35.75,118.40,
06/01/2021,01:09:14.66,-290.53,-874.02,-321.78,15.79,-2.26,-33.66,-3.75,-35.85,52.05,35.75,118.40,
06/01/2021,01:09:14.66,-304.20,-883.30,-303.71,14.94,1.83,-36.28,-3.75,-35.85,52.05,35.70,118.40,
06/01/2021,01:09:14.67,-297.85,-875.98,-315.92,14.76,8.11,-40.24,-4.80,-37.20,51.15,35.94,118.40,
06/01/2021,01:09:14.68,-322.27,-902.83,-328.61,13.35,8.96,-40.30,-4.80,-37.20,51.15,35.98,118.40,
06/01/2021,01:09:14.68,-327.15,-934.08,-354.00,12.87,13.66,-38.48,-4.80,-37.20,51.15,35.79,118.40,
06/01/2021,01:09:14.70,-377.44,-973.14,-374.02,0.91,7.38,-36.83,-3.60,-35.70,50.40,35.94,118.40,
06/01/2021,01:09:14.70,-403.81,-979.49,-381.84,-2.38,-1.28,-35.91,-3.60,-35.70,50.40,35.79,118.40,
06/01/2021,01:09:14.71,-418.95,-989.75,-368.65,-5.43,-13.54,-32.80,-5.55,-36.90,52.95,35.60,118.40,
06/01/2021,01:09:14.72,-449.22,-997.56,-373.54,-6.34,-24.45,-25.61,-5.55,-36.90,52.95,35.98,118.40,
06/01/2021,01:09:14.72,-480.47,-976.56,-374.02,-8.96,-31.89,-21.71,-4.80,-35.70,52.65,35.70,118.40,
06/01/2021,01:09:14.74,-539.06,-957.03,-366.21,-8.23,-36.83,-13.41,-4.20,-35.10,52.05,35.70,118.40,
06/01/2021,01:09:14.74,-547.85,-953.61,-370.12,-6.89,-31.83,-14.57,-4.20,-35.10,52.05,35.70,118.40,
06/01/2021,01:09:14.75,-545.90,-962.89,-358.89,-4.15,-26.16,-15.06,-5.70,-34.65,53.10,35.89,118.40,
06/01/2021,01:09:14.76,-528.32,-991.21,-341.80,-2.56,-17.32,-14.88,-5.70,-34.65,53.10,35.75,118.40,
06/01/2021,01:09:14.76,-513.67,-1037.11,-346.19,-1.89,-8.66,-16.59,-6.15,-34.95,52.20,35.75,118.40,
06/01/2021,01:09:14.78,-481.93,-1224.61,-295.90,-0.43,10.73,-18.23,-7.65,-35.70,52.65,35.70,118.40,
06/01/2021,01:09:14.78,-481.93,-1316.89,-262.70,-1.71,18.17,-17.13,-7.65,-35.70,52.65,35.94,118.40,
06/01/2021,01:09:14.79,-497.07,-1410.16,-250.00,-3.35,19.57,-18.72,-7.65,-35.70,52.65,35.79,118.40,
06/01/2021,01:09:14.80,-504.39,-1480.96,-248.54,-4.27,26.95,-19.63,-7.65,-35.70,52.65,35.55,118.40,
06/01/2021,01:09:14.80,-541.02,-1505.86,-258.30,-9.45,34.02,-20.37,-6.15,-34.95,51.90,35.79,118.40,
06/01/2021,01:09:14.82,-559.57,-1429.20,-206.54,-19.76,51.59,-23.11,-5.70,-37.35,52.35,35.60,118.40,
06/01/2021,01:09:14.82,-523.44,-1345.21,-186.52,-22.74,57.32,-26.65,-5.70,-37.35,52.35,35.94,118.40,
06/01/2021,01:09:14.83,-518.07,-1274.41,-138.67,-20.12,56.83,-24.51,-5.70,-34.65,52.05,35.70,118.40,
06/01/2021,01:09:14.84,-491.21,-1217.29,-136.72,-24.76,51.40,-22.01,-5.70,-34.65,52.05,35.75,118.40,
06/01/2021,01:09:14.84,-481.45,-1150.39,-100.10,-22.87,53.05,-20.30,-6.45,-35.10,51.30,35.75,118.40,
06/01/2021,01:09:14.86,-433.11,-1086.91,-68.85,-24.09,35.98,0.43,-4.80,-35.25,51.15,35.79,118.40,
06/01/2021,01:09:14.86,-421.88,-1041.02,-50.78,-25.55,30.91,8.41,-4.80,-35.25,51.15,35.89,118.40,
06/01/2021,01:09:14.87,-414.55,-1028.32,-59.08,-27.32,28.29,13.84,-6.00,-35.55,50.55,35.79,118.40,
06/01/2021,01:09:14.88,-389.65,-978.03,-53.22,-27.32,26.71,21.10,-6.00,-35.55,50.55,35.70,118.40,
06/01/2021,01:09:14.88,-383.30,-978.52,-48.34,-27.99,22.44,27.56,-6.00,-35.55,50.55,35.94,118.40,
06/01/2021,01:09:14.90,-355.47,-932.13,-30.76,-29.63,24.70,38.35,-5.55,-33.75,51.90,35.89,118.40,
06/01/2021,01:09:14.90,-367.19,-914.55,-26.86,-27.68,25.18,43.54,-5.55,-33.75,51.90,35.94,118.40,
06/01/2021,01:09:14.91,-367.19,-908.69,-22.46,-29.15,23.17,44.63,-5.70,-35.85,51.60,35.79,118.40,
06/01/2021,01:09:14.92,-356.93,-898.44,-44.43,-28.78,23.84,50.06,-5.70,-35.85,51.60,35.70,118.40,
06/01/2021,01:09:14.92,-344.24,-898.44,-29.30,-31.16,21.89,50.30,-5.85,-33.00,51.15,35.46,118.40,
06/01/2021,01:09:14.93,-362.30,-875.00,-37.60,-27.68,22.07,51.52,-4.05,-34.20,49.95,35.46,118.40,
06/01/2021,01:09:14.94,-347.66,-833.01,-27.83,-27.87,19.76,50.55,-4.35,-36.45,49.65,35.55,118.40,
06/01/2021,01:09:14.95,-334.47,-833.98,-34.67,-28.35,20.55,48.96,-5.85,-34.50,51.90,35.89,118.40,
06/01/2021,01:09:14.96,-334.47,-824.22,-8.30,-27.01,15.06,47.26,-5.85,-34.50,51.90,35.79,118.40,
06/01/2021,01:09:14.96,-316.41,-821.78,-21.97,-26.22,12.93,43.60,-3.45,-35.10,49.80,35.79,118.40,
06/01/2021,01:09:14.97,-331.54,-829.59,-17.09,-28.23,14.51,41.89,-3.45,-35.10,49.80,35.98,118.40,
06/01/2021,01:09:14.98,-334.96,-841.31,3.42,-24.21,11.52,31.95,-3.45,-35.85,49.50,35.70,118.40,
06/01/2021,01:09:14.99,-338.87,-832.52,6.84,-25.18,9.70,27.26,-3.45,-35.85,49.50,36.08,118.40,
06/01/2021,01:09:15.00,-342.29,-841.31,9.77,-20.91,9.39,23.41,-3.45,-35.85,49.50,35.55,118.40,
06/01/2021,01:09:15.05,-397.46,-820.31,42.48,-12.50,31.04,-27.62,-2.70,-35.85,49.50,35.94,118.40,
06/01/2021,01:09:15.07,-401.86,-851.56,45.41,-9.27,45.37,-34.51,-2.70,-35.85,49.50,35.89,118.40,
06/01/2021,01:09:15.08,-430.18,-865.72,56.64,-6.89,59.76,-42.13,-3.45,-35.55,50.25,35.89,118.40,
06/01/2021,01:09:15.09,-432.62,-876.95,50.78,-4.57,65.73,-41.83,-4.05,-35.70,48.15,35.75,118.40,
06/01/2021,01:09:15.09,-430.18,-861.82,64.94,-4.63,68.84,-44.27,-4.05,-35.70,48.15,35.89,118.40,
06/01/2021,01:09:15.10,-437.50,-877.93,60.55,-1.95,71.10,-43.29,-3.30,-34.95,49.65,35.60,118.40,
06/01/2021,01:09:15.11,-440.43,-880.86,55.18,-2.87,76.10,-44.57,-3.30,-34.95,49.65,35.75,118.40,
06/01/2021,01:09:15.12,-443.85,-913.09,73.73,-1.71,77.74,-42.44,-3.00,-35.55,49.80,35.79,118.40,
06/01/2021,01:09:15.13,-453.12,-914.55,83.01,-0.30,76.28,-39.02,-3.45,-35.55,49.80,35.89,118.40,
06/01/2021,01:09:15.13,-433.59,-903.32,82.03,-0.24,76.77,-35.67,-3.45,-36.30,49.50,35.79,118.40,
06/01/2021,01:09:15.14,-440.92,-918.95,83.98,3.84,74.51,-29.45,-1.20,-35.55,50.25,35.79,118.40,
06/01/2021,01:09:15.15,-448.73,-901.86,80.57,3.05,71.71,-29.45,-1.20,-35.55,50.25,35.89,118.40,
06/01/2021,01:09:15.15,-430.18,-918.95,107.91,2.50,69.45,-25.67,-1.20,-35.55,50.25,35.79,118.40,
06/01/2021,01:09:15.17,-440.92,-903.32,97.66,6.83,64.45,-11.40,0.00,-34.20,48.15,35.79,118.40,
06/01/2021,01:09:15.17,-432.62,-896.97,102.05,6.22,59.21,-5.30,0.00,-34.20,48.15,35.55,118.40,
06/01/2021,01:09:15.18,-431.15,-911.62,85.94,9.51,57.26,-0.55,-1.80,-34.95,49.95,35.79,118.40,
06/01/2021,01:09:15.19,-427.25,-908.20,104.49,10.79,56.28,4.02,-1.80,-34.95,49.95,35.79,118.40,
06/01/2021,01:09:15.19,-418.95,-915.04,115.23,11.83,55.18,8.60,-1.80,-33.75,50.70,35.55,118.40,
06/01/2021,01:09:15.21,-429.69,-909.67,102.54,16.34,52.50,18.35,-1.05,-34.95,49.35,35.70,118.40,
06/01/2021,01:09:15.21,-427.25,-919.43,85.94,19.21,52.32,24.39,-2.85,-37.20,50.70,35.79,118.40,
06/01/2021,01:09:15.22,-424.80,-933.11,90.33,18.96,54.15,25.55,-1.95,-36.30,49.05,35.75,118.40,
06/01/2021,01:09:15.23,-417.48,-925.29,76.66,24.63,54.82,30.79,-1.95,-36.30,49.05,35.79,118.40,
06/01/2021,01:09:15.23,-433.59,-948.73,77.64,25.91,56.89,32.01,-1.05,-34.95,50.70,35.75,118.40,
06/01/2021,01:09:15.25,-406.25,-959.96,84.96,29.57,64.82,39.82,0.00,-34.20,49.65,35.79,118.40,
06/01/2021,01:09:15.25,-412.60,-971.68,94.73,31.71,63.66,40.73,-0.60,-36.45,52.65,35.75,118.40,
06/01/2021,01:09:15.26,-393.55,-980.47,101.56,34.27,63.11,41.40,-0.60,-36.45,52.65,35.75,118.40,
06/01/2021,01:09:15.27,-376.46,-992.19,106.93,35.73,61.10,40.24,-0.60,-36.45,52.65,35.75,118.40,
06/01/2021,01:09:15.27,-384.77,-998.54,120.61,36.59,59.76,42.07,0.30,-34.50,51.45,35.89,118.40,
06/01/2021,01:09:15.29,-369.63,-999.51,97.17,40.00,52.32,42.80,0.30,-34.50,51.45,35.75,118.40,
06/01/2021,01:09:15.29,-353.03,-989.75,90.33,40.67,52.13,41.10,0.30,-34.50,51.15,35.70,118.40,
06/01/2021,01:09:15.30,-355.96,-974.12,110.35,43.29,47.68,41.95,0.30,-34.50,51.15,35.79,118.40,
06/01/2021,01:09:15.30,-346.19,-998.05,103.52,43.48,45.85,40.91,1.95,-33.90,50.55,35.89,118.40,
06/01/2021,01:09:15.31,-350.10,-999.02,93.75,47.87,44.21,40.06,1.20,-33.90,51.00,35.89,118.40,
06/01/2021,01:09:15.32,-349.61,-1006.35,69.34,48.84,40.85,38.17,1.20,-33.90,51.00,35.79,118.40,
06/01/2021,01:09:15.33,-344.24,-1053.71,78.61,50.91,41.52,30.12,2.10,-33.30,51.15,35.75,118.40,
06/01/2021,01:09:15.34,-347.66,-1046.39,62.01,53.35,42.01,27.80,2.10,-33.30,51.15,35.55,118.40,
06/01/2021,01:09:15.34,-363.77,-1056.15,36.62,51.89,37.20,27.07,3.75,-33.60,52.80,35.89,118.40,
06/01/2021,01:09:15.35,-358.89,-1062.01,21.48,53.72,39.45,22.56,3.75,-33.60,52.80,35.75,118.40,
06/01/2021,01:09:15.36,-375.00,-1063.48,8.79,54.57,39.45,19.21,3.75,-33.60,52.80,35.60,118.40,
06/01/2021,01:09:15.37,-383.30,-1058.59,-23.93,56.71,42.01,12.99,4.50,-33.15,49.80,35.55,118.40,
06/01/2021,01:09:15.38,-400.39,-1046.39,-34.18,55.06,42.68,8.35,4.50,-33.15,49.80,35.94,118.40,
06/01/2021,01:09:15.38,-404.79,-1055.18,-21.97,58.29,44.33,5.79,4.50,-33.60,53.10,35.75,118.40,
06/01/2021,01:09:15.39,-403.32,-1085.94,-11.72,58.11,47.74,6.16,3.75,-31.95,52.35,35.79,118.40,
06/01/2021,01:09:15.40,-409.67,-1122.56,-3.42,57.80,49.82,5.18,3.75,-31.95,52.35,35.70,118.40,
06/01/2021,01:09:15.41,-419.43,-1225.59,-8.79,60.85,46.52,-2.26,3.75,-31.65,52.80,35.79,118.40,
06/01/2021,01:09:15.42,-411.62,-1263.67,-22.95,61.59,46.89,-2.20,3.75,-31.65,52.80,35.79,118.40,
06/01/2021,01:09:15.42,-414.55,-1273.93,-38.57,61.83,46.22,-3.17,5.25,-30.90,54.60,35.70,118.40,
06/01/2021,01:09:15.43,-428.22,-1281.25,-67.38,64.15,45.79,-0.61,6.15,-31.50,54.00,35.94,118.40,
06/01/2021,01:09:15.44,-432.13,-1268.07,-83.98,63.35,46.40,-6.77,6.15,-31.50,54.00,35.70,118.40,
06/01/2021,01:09:15.44,-450.68,-1221.19,-126.46,67.38,46.83,-2.01,6.15,-31.50,54.00,35.75,118.40,
06/01/2021,01:09:15.46,-462.40,-1110.35,-238.28,70.30,53.05,3.72,6.15,-29.85,52.65,35.75,118.40,
06/01/2021,01:09:15.46,-472.17,-1057.13,-267.09,73.29,59.39,10.00,6.15,-29.85,52.65,35.94,118.40,
06/01/2021,01:09:15.47,-467.77,-1009.28,-309.57,76.65,64.39,13.66,6.90,-30.75,54.75,35.75,118.40,
06/01/2021,01:09:15.48,-465.82,-965.82,-350.10,78.41,69.88,17.68,6.90,-30.75,54.75,36.08,118.40,
06/01/2021,01:09:15.48,-479.49,-951.17,-391.11,77.93,80.85,21.89,5.25,-28.95,54.90,35.89,118.40,
06/01/2021,01:09:15.50,-491.70,-937.01,-475.59,79.27,111.83,38.11,9.75,-29.40,54.15,35.89,118.40,
06/01/2021,01:09:15.50,-500.49,-950.68,-496.09,79.45,126.16,42.26,7.35,-29.10,56.25,35.79,118.40,
06/01/2021,01:09:15.54,-494.14,-1126.95,-613.28,47.74,205.49,63.84,10.35,-27.60,55.50,35.79,118.40,
06/01/2021,01:09:15.55,-477.05,-1196.78,-708.50,23.96,270.55,65.98,11.40,-26.10,55.50,35.89,118.40,
06/01/2021,01:09:15.56,-394.04,-1171.39,-669.92,17.32,293.78,62.74,11.40,-26.10,55.50,35.94,118.40,
06/01/2021,01:09:15.57,-126.46,-1094.24,-537.60,-1.22,306.59,47.56,14.55,-25.05,54.60,35.70,118.40,
06/01/2021,01:09:15.58,-50.29,-1066.41,-469.24,-5.43,281.71,43.60,16.80,-26.70,51.60,35.89,118.40,
06/01/2021,01:09:15.59,28.32,-1054.20,-408.20,-14.82,250.55,40.00,16.80,-26.70,51.60,35.79,118.40,
06/01/2021,01:09:15.59,95.21,-1027.83,-355.47,-19.63,211.46,44.76,17.40,-25.35,52.20,35.89,118.40,
06/01/2021,01:09:15.60,126.95,-1004.39,-300.29,-26.89,166.46,48.23,17.40,-25.35,52.20,35.79,118.40,
06/01/2021,01:09:15.61,151.86,-960.45,-228.52,-42.38,32.62,56.59,18.60,-26.25,50.55,35.94,118.40,
06/01/2021,01:09:15.62,111.82,-942.38,-198.73,-45.85,-11.34,54.15,19.35,-23.55,50.25,35.89,118.40,
06/01/2021,01:09:15.63,47.85,-944.34,-186.52,-51.59,-50.37,52.38,19.35,-23.55,50.25,35.75,118.40,
06/01/2021,01:09:15.63,-22.46,-923.83,-182.62,-54.63,-79.57,51.10,20.25,-23.70,48.90,35.79,118.40,
06/01/2021,01:09:15.64,-62.50,-911.13,-162.60,-55.49,-103.78,46.71,20.25,-23.70,48.90,35.75,118.40,
06/01/2021,01:09:15.65,-148.44,-845.21,-107.42,-62.26,-142.99,38.05,19.95,-23.70,48.90,35.79,118.40,
06/01/2021,01:09:15.66,-173.34,-820.31,-105.47,-61.95,-154.94,36.83,19.95,-23.70,48.90,35.75,118.40,
06/01/2021,01:09:15.67,-219.73,-802.25,-114.75,-61.04,-162.50,35.30,19.95,-23.70,48.90,35.79,118.40,
06/01/2021,01:09:15.67,-232.42,-792.97,-92.29,-62.26,-169.70,33.90,18.45,-22.65,51.45,35.79,118.40,
06/01/2021,01:09:15.68,-265.14,-795.41,-77.64,-60.24,-175.67,34.27,18.45,-22.65,51.45,35.79,118.40,
06/01/2021,01:09:15.70,-345.70,-782.23,-75.68,-63.05,-171.95,27.32,18.45,-22.65,50.40,35.79,118.40,
06/01/2021,01:09:15.70,-367.19,-777.83,-64.94,-60.18,-164.21,28.35,17.10,-25.05,51.60,35.89,118.40,
06/01/2021,01:09:15.71,-376.46,-788.57,-70.80,-58.11,-155.12,25.79,17.10,-25.05,51.60,35.94,118.40,
06/01/2021,01:09:15.71,-398.44,-793.95,-68.36,-55.98,-143.41,20.67,16.95,-24.60,51.15,35.94,118.40,
06/01/2021,01:09:15.72,-407.71,-786.62,-62.50,-55.24,-127.68,18.54,16.95,-24.60,51.15,35.89,118.40,
06/01/2021,01:09:15.74,-425.78,-792.97,-59.57,-47.93,-79.76,9.76,16.95,-22.95,51.15,35.70,118.40,
06/01/2021,01:09:15.74,-417.48,-799.80,-49.80,-47.01,-65.85,6.77,15.30,-25.50,52.05,35.94,118.40,
06/01/2021,01:09:15.75,-414.06,-792.48,-26.37,-43.17,-49.33,3.29,15.30,-25.50,52.05,35.89,118.40,
06/01/2021,01:09:15.75,-394.04,-804.20,-37.11,-41.34,-40.12,0.79,15.30,-25.50,52.05,35.79,118.40,
06/01/2021,01:09:15.76,-388.67,-798.83,-10.25,-36.65,-28.41,-1.83,15.30,-25.50,52.05,35.75,118.40,
06/01/2021,01:09:15.78,-375.98,-804.69,-10.25,-30.67,-10.79,-7.20,15.45,-23.40,50.70,35.79,118.40,
06/01/2021,01:09:15.78,-367.19,-804.20,-19.53,-25.06,-7.99,-10.55,15.30,-24.00,51.60,35.79,118.40,
06/01/2021,01:09:15.79,-361.33,-815.43,-14.65,-22.20,-4.82,-11.04,15.30,-24.00,51.60,35.60,118.40,
06/01/2021,01:09:15.79,-350.10,-798.34,-11.72,-19.27,-0.37,-14.33,15.15,-23.70,54.45,35.07,118.40,
06/01/2021,01:09:15.80,-344.73,-794.43,-9.77,-14.45,5.30,-16.40,15.15,-23.70,54.45,35.70,118.40,
06/01/2021,01:09:15.82,-344.24,-794.92,16.60,-3.48,11.65,-20.91,14.25,-24.00,53.55,35.79,118.40,
06/01/2021,01:09:15.82,-332.03,-794.92,28.32,1.34,14.45,-24.57,13.50,-23.25,52.05,35.89,118.40,
06/01/2021,01:09:15.83,-332.52,-784.18,45.41,7.01,16.89,-25.55,13.50,-23.25,52.05,35.70,118.40,
06/01/2021,01:09:15.83,-324.71,-801.76,41.99,10.91,15.55,-26.40,14.40,-23.40,52.20,35.70,118.40,
06/01/2021,01:09:15.84,-323.73,-793.95,50.29,15.43,16.16,-27.20,14.40,-23.40,52.20,35.60,118.40,
06/01/2021,01:09:15.85,-345.70,-799.32,61.04,16.52,16.52,-29.21,14.40,-23.40,52.20,35.89,118.40,
06/01/2021,01:09:15.86,-364.26,-814.45,54.69,25.24,18.96,-35.00,15.60,-21.60,51.30,35.79,118.40,
06/01/2021,01:09:15.87,-384.28,-817.87,47.85,29.09,20.61,-34.45,15.60,-21.60,51.30,35.98,118.40,
06/01/2021,01:09:15.87,-375.00,-815.43,45.90,31.65,22.50,-34.51,15.45,-22.95,51.45,35.75,118.40,
06/01/2021,01:09:15.88,-375.98,-822.75,41.99,34.70,25.43,-34.76,15.45,-22.95,51.45,35.70,118.40,
06/01/2021,01:09:15.89,-385.25,-840.33,44.92,38.17,27.01,-33.96,14.70,-23.70,52.65,35.89,118.40,
06/01/2021,01:09:15.90,-388.18,-893.55,32.71,43.90,37.74,-38.72,13.20,-23.40,52.95,35.75,118.40,
06/01/2021,01:09:15.91,-398.93,-901.37,38.09,48.84,38.29,-45.18,13.20,-23.40,52.95,35.79,118.40,
06/01/2021,01:09:15.91,-399.41,-938.96,30.76,47.44,40.06,-44.02,13.95,-22.65,50.70,35.55,118.40,
06/01/2021,01:09:15.92,-396.00,-955.57,29.30,50.67,41.77,-48.66,13.95,-22.65,50.70,35.60,118.40,
06/01/2021,01:09:15.93,-407.71,-981.45,27.83,55.06,42.99,-47.56,15.30,-22.05,51.60,35.60,118.40,
06/01/2021,01:09:15.94,-428.71,-1083.01,-11.72,59.45,45.98,-57.01,14.70,-21.90,52.20,35.75,118.40,
06/01/2021,01:09:15.95,-451.17,-1109.38,0.00,62.13,49.02,-58.72,14.70,-21.90,52.20,35.60,118.40,
06/01/2021,01:09:15.95,-452.64,-1166.50,2.93,62.13,50.85,-60.24,14.70,-21.90,52.20,35.79,118.40,
06/01/2021,01:09:15.96,-485.84,-1241.70,-19.53,63.96,51.59,-63.23,14.70,-21.90,52.20,35.79,118.40,
06/01/2021,01:09:15.97,-481.93,-1337.89,-28.32,63.66,50.98,-64.51,15.30,-20.55,51.00,35.60,118.40,
06/01/2021,01:09:15.98,-550.78,-1583.98,-70.31,67.80,52.32,-70.79,16.20,-18.75,50.70,35.89,118.40,
06/01/2021,01:09:15.99,-584.96,-1627.93,-97.66,68.96,56.34,-69.94,16.20,-18.75,50.70,35.55,118.40,
06/01/2021,01:09:15.99,-618.65,-1641.60,-127.93,67.68,60.37,-74.70,14.55,-18.90,49.05,35.46,118.40,
06/01/2021,01:09:16.00,-654.30,-1601.07,-128.42,65.67,62.50,-71.34,14.55,-18.90,49.05,35.89,118.40,
06/01/2021,01:09:16.01,-681.15,-1535.16,-95.70,62.56,62.62,-69.57,15.30,-20.10,49.50,35.60,118.40,
06/01/2021,01:09:16.05,-621.09,-1092.29,-314.45,40.43,107.13,-4.57,15.45,-19.20,48.15,35.70,118.40,
06/01/2021,01:09:16.06,-493.65,-1082.03,-281.74,40.49,114.02,2.01,14.25,-17.10,46.50,35.36,118.40,
06/01/2021,01:09:16.07,-470.70,-1076.17,-256.35,40.91,114.51,8.48,14.25,-17.10,46.50,35.60,118.40,
06/01/2021,01:09:16.08,-442.38,-1068.36,-249.02,40.49,113.11,19.76,12.45,-17.55,46.05,35.79,118.40,
06/01/2021,01:09:16.08,-413.57,-1040.04,-233.40,39.51,108.72,28.78,12.30,-17.40,45.15,35.79,118.40,
06/01/2021,01:09:16.09,-387.21,-1022.46,-212.89,36.46,105.37,36.95,12.30,-17.40,45.15,35.89,118.40,
06/01/2021,01:09:16.10,-378.91,-921.88,-209.47,26.52,95.61,41.89,12.90,-16.05,43.50,35.55,118.40,
06/01/2021,01:09:16.11,-369.63,-881.35,-220.70,26.04,96.10,44.51,10.05,-15.15,44.40,35.70,118.40,
06/01/2021,01:09:16.12,-374.51,-869.14,-207.52,22.74,98.84,48.11,10.05,-15.15,44.40,35.75,118.40,
06/01/2021,01:09:16.12,-380.86,-847.66,-187.50,18.41,97.68,49.15,8.40,-15.75,44.55,35.70,118.40,
06/01/2021,01:09:16.13,-363.77,-841.80,-168.95,15.24,95.73,47.01,8.40,-15.75,44.55,35.70,118.40,
06/01/2021,01:09:16.14,-345.70,-856.93,-116.70,4.70,88.90,48.48,6.45,-17.40,46.20,35.55,118.40,
06/01/2021,01:09:16.15,-355.96,-863.77,-93.26,1.89,80.55,46.46,6.45,-17.40,46.20,35.75,118.40,
06/01/2021,01:09:16.16,-350.10,-867.68,-67.38,-3.60,70.06,45.06,6.45,-17.40,46.20,35.70,118.40,
06/01/2021,01:09:16.16,-356.45,-866.21,-41.50,-7.38,59.70,46.89,5.70,-17.85,49.50,35.60,118.40,
06/01/2021,01:09:16.17,-385.74,-879.88,-35.16,-10.49,51.10,48.41,5.70,-17.85,49.50,35.94,118.40,
06/01/2021,01:09:16.18,-367.19,-883.79,-13.18,-18.54,28.90,47.44,6.60,-16.80,51.90,35.60,118.40,
06/01/2021,01:09:16.19,-391.11,-899.90,3.91,-22.74,23.41,41.40,6.60,-16.80,51.90,35.55,118.40,
06/01/2021,01:09:16.20,-398.44,-884.77,-13.67,-24.39,16.89,42.44,6.15,-16.50,52.95,35.46,118.40,
06/01/2021,01:09:16.20,-412.60,-880.37,-25.39,-27.26,13.23,41.10,5.55,-17.55,54.75,35.70,118.40,
06/01/2021,01:09:16.21,-418.95,-872.56,-14.65,-30.61,11.40,38.84,5.55,-17.55,54.75,35.60,118.40,
06/01/2021,01:09:16.22,-395.51,-861.33,-23.44,-33.78,9.94,36.46,8.25,-17.40,54.90,35.60,118.40,
06/01/2021,01:09:16.23,-410.64,-856.93,-24.41,-33.17,11.22,37.01,8.25,-17.40,54.90,35.79,118.40,
06/01/2021,01:09:16.24,-406.74,-875.98,-17.58,-36.16,12.44,36.46,9.15,-18.00,58.50,35.79,118.40,
06/01/2021,01:09:16.24,-396.48,-872.07,-6.84,-36.52,12.62,36.83,9.15,-18.00,58.50,35.75,118.40,
06/01/2021,01:09:16.25,-391.60,-868.65,-13.67,-33.35,10.06,40.73,9.15,-18.00,58.50,35.94,118.40,
06/01/2021,01:09:16.26,-391.60,-885.25,-4.39,-37.74,10.79,44.88,12.15,-18.45,59.85,35.75,118.40,
06/01/2021,01:09:16.27,-384.77,-890.14,-6.84,-35.85,8.23,46.10,12.15,-18.45,59.85,35.94,118.40,
06/01/2021,01:09:16.28,-382.81,-901.86,-11.72,-36.40,8.41,47.80,13.50,-18.15,60.45,35.79,118.40,
06/01/2021,01:09:16.28,-372.56,-912.11,-9.77,-34.94,7.62,49.15,13.95,-18.75,59.55,35.79,118.40,
06/01/2021,01:09:16.29,-374.02,-914.55,0.00,-33.66,7.62,50.18,13.95,-18.75,59.55,35.75,118.40,
06/01/2021,01:09:16.29,-361.82,-914.06,10.74,-36.22,4.76,53.11,16.05,-19.35,58.65,35.79,118.40,
06/01/2021,01:09:16.31,-352.54,-926.27,33.20,-32.68,0.91,57.56,17.55,-17.85,60.00,35.55,118.40,
06/01/2021,01:09:16.32,-369.63,-928.22,41.99,-31.46,-0.12,59.82,17.55,-17.85,60.00,35.79,118.40,
06/01/2021,01:09:16.32,-352.05,-914.06,52.25,-32.87,-5.49,64.21,17.85,-19.35,60.00,35.89,118.40,
06/01/2021,01:09:16.33,-358.89,-912.11,64.94,-31.10,-5.24,63.23,17.85,-19.35,60.00,35.46,118.40,
06/01/2021,01:09:16.33,-346.68,-912.11,60.06,-28.84,-7.87,66.34,17.85,-19.35,60.00,35.60,118.40,
06/01/2021,01:09:16.35,-350.10,-912.11,79.10,-28.29,-13.41,63.90,21.15,-18.15,59.70,35.75,118.40,
06/01/2021,01:09:16.36,-329.10,-906.25,64.94,-26.65,-12.01,65.91,18.60,-18.90,60.45,35.89,118.40,
06/01/2021,01:09:16.36,-347.66,-912.11,69.34,-24.70,-14.27,66.59,19.50,-19.20,60.45,35.94,118.40,
06/01/2021,01:09:16.37,-334.47,-884.28,83.01,-22.62,-15.30,63.54,19.50,-19.20,59.85,35.94,118.40,
06/01/2021,01:09:16.37,-338.87,-892.09,78.12,-24.76,-14.76,61.89,19.80,-18.60,61.50,35.79,118.40,
06/01/2021,01:09:16.39,-323.24,-883.30,83.50,-19.27,-13.41,58.90,20.70,-19.95,60.60,35.55,118.40,
06/01/2021,01:09:16.40,-318.36,-882.81,68.85,-16.65,-15.43,56.71,20.10,-20.55,62.25,35.79,118.40,
06/01/2021,01:09:16.40,-317.38,-876.95,71.29,-15.49,-13.60,53.35,20.85,-19.65,60.00,35.75,118.40,
06/01/2021,01:09:16.41,-316.89,-864.26,70.31,-15.37,-14.82,51.28,20.85,-19.65,60.00,35.60,118.40,
06/01/2021,01:09:16.41,-315.92,-866.21,75.20,-14.39,-11.77,47.99,20.55,-18.60,59.70,35.89,118.40,
06/01/2021,01:09:16.43,-309.08,-846.68,60.55,-8.72,-9.63,38.72,20.55,-18.60,59.70,35.94,118.40,
06/01/2021,01:09:16.44,-306.15,-851.07,71.29,-6.71,-8.35,34.94,21.45,-21.90,60.30,35.70,118.40,
06/01/2021,01:09:16.44,-310.55,-845.70,60.06,-5.55,-11.40,29.45,21.45,-21.90,60.30,35.60,118.40,
06/01/2021,01:09:16.45,-311.52,-847.17,55.18,-2.99,-8.72,23.29,21.45,-21.90,60.30,35.75,118.40,
06/01/2021,01:09:16.45,-295.41,-848.63,50.29,-1.04,-9.45,19.09,22.20,-18.45,58.80,35.79,118.40,
06/01/2021,01:09:16.46,-309.57,-841.80,57.62,1.83,-5.06,12.74,22.20,-18.45,58.80,35.79,118.40,
06/01/2021,01:09:16.48,-309.08,-825.68,43.95,5.55,-5.55,-1.89,22.50,-19.20,59.55,35.75,118.40,
06/01/2021,01:09:16.48,-309.57,-834.47,43.95,6.95,-1.77,-4.27,22.50,-19.20,59.55,35.75,118.40,
06/01/2021,01:09:16.49,-305.66,-838.87,49.32,9.45,-2.26,-10.12,23.40,-19.65,60.45,35.70,118.40,
06/01/2021,01:09:16.49,-314.45,-833.50,49.80,11.95,-1.40,-18.35,24.30,-17.55,61.35,35.94,118.40,
06/01/2021,01:09:16.50,-311.52,-846.19,26.86,10.98,1.46,-24.88,24.30,-17.55,61.35,35.75,118.40,
06/01/2021,01:09:16.52,-313.48,-844.73,16.60,17.68,4.15,-37.38,23.85,-17.40,59.70,35.89,118.40,
06/01/2021,01:09:16.52,-318.85,-850.59,10.74,19.33,2.87,-45.00,23.85,-17.40,59.70,35.60,118.40,
06/01/2021,01:09:16.56,-365.72,-986.33,-35.16,27.13,16.59,-77.50,25.05,-19.20,59.85,35.70,118.40,
06/01/2021,01:09:16.57,-378.42,-1105.47,-22.46,29.57,17.68,-89.45,24.00,-19.20,59.55,35.89,118.40,
06/01/2021,01:09:16.58,-390.14,-1170.90,-21.97,31.89,18.17,-97.20,22.50,-18.75,59.85,35.60,118.40,
06/01/2021,01:09:16.59,-420.41,-1329.59,-11.72,34.94,17.62,-114.09,23.70,-18.75,61.35,35.94,118.40,
06/01/2021,01:09:16.60,-451.17,-1379.88,-16.60,34.70,14.88,-116.22,22.95,-20.70,59.85,35.89,118.40,
06/01/2021,01:09:16.60,-468.26,-1400.88,-20.02,36.52,10.61,-123.48,22.95,-20.70,59.85,35.41,118.40,
06/01/2021,01:09:16.61,-465.33,-1423.34,-38.09,38.90,10.24,-130.18,22.95,-20.70,59.85,35.94,118.40,
06/01/2021,01:09:16.62,-498.05,-1395.51,-61.52,40.30,9.39,-128.60,22.65,-22.05,61.20,35.79,118.40,
06/01/2021,01:09:16.63,-560.55,-1344.24,-157.23,47.87,9.76,-128.84,22.95,-21.45,60.60,35.60,118.40,
06/01/2021,01:09:16.64,-569.34,-1299.32,-207.52,50.30,14.70,-125.79,22.95,-21.45,60.60,35.75,118.40,
06/01/2021,01:09:16.64,-606.45,-1257.81,-263.18,49.09,21.04,-119.57,22.95,-20.70,59.85,35.70,118.40,
06/01/2021,01:09:16.65,-619.14,-1203.12,-294.92,54.15,26.28,-111.52,22.95,-20.70,59.85,35.89,118.40,
06/01/2021,01:09:16.66,-614.75,-1155.76,-344.73,53.60,38.11,-106.71,22.50,-22.20,61.05,35.70,118.40,
06/01/2021,01:09:16.67,-622.56,-1001.46,-384.28,57.56,68.84,-86.34,22.50,-21.90,61.05,35.89,118.40,
06/01/2021,01:09:16.68,-602.05,-952.64,-393.07,56.40,80.73,-79.51,22.50,-21.90,61.05,35.55,118.40,
06/01/2021,01:09:16.69,-577.15,-901.86,-402.83,55.91,93.11,-72.13,23.70,-22.20,58.05,35.55,118.40,
06/01/2021,01:09:16.69,-589.36,-840.82,-407.71,55.30,103.05,-62.07,23.70,-22.20,58.05,36.13,118.40,
06/01/2021,01:09:16.70,-537.60,-810.55,-405.27,53.11,111.83,-55.37,23.85,-22.80,58.95,35.89,118.40,
06/01/2021,01:09:16.71,-485.35,-737.79,-381.84,49.94,128.29,-28.96,24.30,-19.95,57.75,35.70,118.40,
06/01/2021,01:09:16.72,-455.08,-741.21,-367.68,49.15,132.20,-22.32,24.30,-19.95,57.75,35.60,118.40,
06/01/2021,01:09:16.73,-442.38,-750.98,-322.75,43.96,135.73,-12.62,26.25,-22.20,57.75,35.75,118.40,
06/01/2021,01:09:16.73,-382.81,-753.91,-301.76,44.70,133.23,-3.17,26.25,-22.20,57.75,35.89,118.40,
06/01/2021,01:09:16.74,-359.86,-785.64,-317.38,34.51,125.30,-0.49,26.25,-22.20,57.75,35.70,118.40,
06/01/2021,01:09:16.75,-299.80,-854.00,-341.80,11.59,102.80,22.20,27.90,-22.35,56.85,35.75,118.40,
06/01/2021,01:09:16.76,-320.80,-871.09,-433.59,2.68,91.04,25.79,27.90,-22.35,56.85,35.94,118.40,
06/01/2021,01:09:16.77,-295.90,-904.30,-482.42,-10.85,66.77,31.46,30.15,-22.05,55.35,35.60,118.40,
06/01/2021,01:09:16.77,-229.98,-956.05,-490.23,-24.82,36.52,39.51,30.15,-22.05,55.35,35.94,118.40,
06/01/2021,01:09:16.78,-137.21,-976.56,-464.84,-33.54,9.70,34.09,29.55,-22.20,54.75,35.70,118.40,
06/01/2021,01:09:16.78,-119.14,-980.96,-422.36,-36.95,-13.66,34.45,29.85,-21.45,54.00,35.46,118.40,
06/01/2021,01:09:16.80,-202.15,-915.53,-337.89,-46.22,-64.63,38.23,30.15,-22.80,53.85,35.89,118.40,
06/01/2021,01:09:16.81,-205.08,-933.59,-332.52,-45.91,-73.60,39.57,30.15,-22.80,53.85,35.79,118.40,
06/01/2021,01:09:16.81,-221.68,-918.95,-318.36,-44.15,-84.63,37.74,30.15,-22.80,53.85,35.55,118.40,
06/01/2021,01:09:16.82,-256.84,-933.11,-307.13,-42.62,-92.01,34.70,28.80,-22.20,55.20,35.60,118.40,
06/01/2021,01:09:16.82,-284.67,-930.66,-283.20,-41.95,-103.90,36.71,28.80,-22.20,55.20,35.89,118.40,
06/01/2021,01:09:16.84,-330.08,-969.73,-222.66,-43.72,-118.17,34.27,29.70,-22.35,55.65,35.94,118.40,
06/01/2021,01:09:16.85,-347.17,-969.24,-206.54,-44.39,-118.96,31.95,28.20,-23.25,56.85,35.94,118.40,
06/01/2021,01:09:16.85,-343.26,-970.21,-179.20,-42.50,-120.91,30.18,28.20,-23.25,56.85,35.89,118.40,
06/01/2021,01:09:16.86,-351.07,-959.47,-160.16,-43.41,-119.76,28.05,28.20,-22.80,56.85,35.55,118.40,
06/01/2021,01:09:16.87,-370.61,-948.73,-149.41,-41.40,-118.23,27.26,27.90,-22.35,57.15,35.75,118.40,
06/01/2021,01:09:16.88,-392.58,-881.35,-114.26,-38.72,-94.76,26.83,28.50,-21.90,55.20,35.70,118.40,
06/01/2021,01:09:16.89,-394.53,-871.58,-115.23,-37.80,-84.33,29.21,26.55,-22.65,59.10,35.98,118.40,
06/01/2021,01:09:16.89,-394.53,-858.89,-99.12,-35.55,-73.35,29.82,26.55,-22.65,59.10,35.79,118.40,
06/01/2021,01:09:16.90,-403.32,-851.07,-94.24,-31.59,-68.66,29.02,26.55,-22.65,59.10,35.79,118.40,
06/01/2021,01:09:16.91,-394.53,-856.45,-82.52,-28.96,-58.66,35.06,26.10,-23.25,57.15,35.75,118.40,
06/01/2021,01:09:16.92,-402.83,-838.38,-54.20,-23.96,-41.83,38.60,26.10,-23.25,57.15,35.70,118.40,
06/01/2021,01:09:16.93,-397.46,-842.77,-55.18,-21.22,-36.10,39.33,26.55,-21.00,59.85,35.75,118.40,
06/01/2021,01:09:16.93,-417.48,-846.68,-53.22,-18.54,-32.38,44.02,26.40,-21.00,59.85,35.70,118.40,
06/01/2021,01:09:16.94,-388.67,-842.77,-59.08,-18.11,-26.95,42.62,26.40,-21.60,58.20,35.70,118.40,
06/01/2021,01:09:16.95,-398.44,-845.21,-53.71,-12.74,-23.17,45.91,25.65,-22.80,59.40,35.55,118.40,
06/01/2021,01:09:16.96,-398.44,-846.19,-59.57,-6.77,-8.23,45.91,28.80,-22.20,57.00,35.94,118.40,
06/01/2021,01:09:16.97,-392.09,-840.33,-67.38,-5.18,-2.32,46.65,26.25,-22.95,58.50,35.55,118.40,
06/01/2021,01:09:16.97,-380.86,-848.14,-54.69,-1.16,3.17,48.41,27.00,-19.95,59.10,35.98,118.40,
06/01/2021,01:09:16.98,-384.77,-850.10,-58.59,0.43,7.56,49.51,27.00,-19.95,59.10,35.75,118.40,
06/01/2021,01:09:16.99,-363.77,-849.61,-53.71,2.01,13.05,46.22,27.00,-19.95,59.10,35.79,118.40,
06/01/2021,01:09:17.00,-337.89,-845.21,-43.95,5.12,16.40,42.87,30.15,-20.55,56.10,35.55,118.40,
06/01/2021,01:09:17.01,-319.82,-843.75,-52.25,8.66,15.67,45.67,30.15,-20.55,56.10,35.55,118.40,
06/01/2021,01:09:17.01,-316.89,-835.94,-39.06,10.67,15.49,45.37,29.40,-20.85,56.10,35.75,118.40,
06/01/2021,01:09:17.02,-315.43,-832.52,-46.39,10.79,13.84,44.70,29.40,-20.85,57.15,35.60,118.40,
06/01/2021,01:09:17.03,-316.89,-846.68,-50.78,14.39,9.94,41.28,30.15,-20.55,56.40,35.55,118.40,
06/01/2021,01:09:17.07,-331.54,-848.14,-81.05,25.79,10.00,35.85,31.05,-18.75,56.55,35.94,118.40,
06/01/2021,01:09:17.09,-331.05,-879.88,-96.68,26.59,10.49,27.50,32.10,-16.80,54.75,35.75,118.40,
06/01/2021,01:09:17.09,-332.52,-883.79,-108.40,27.13,9.88,25.49,32.10,-16.80,54.75,35.60,118.40,
06/01/2021,01:09:17.10,-338.38,-894.04,-96.68,28.84,11.77,24.45,32.10,-16.80,54.75,35.98,118.40,
06/01/2021,01:09:17.10,-335.94,-902.83,-100.59,28.35,14.15,24.33,32.10,-16.80,54.75,35.89,118.40,
06/01/2021,01:09:17.11,-341.80,-909.18,-97.17,30.18,12.38,17.26,31.80,-16.50,57.00,35.79,118.40,
06/01/2021,01:09:17.12,-350.10,-975.59,-108.40,32.26,19.70,14.21,31.05,-16.50,55.50,35.75,118.40,
06/01/2021,01:09:17.13,-358.40,-994.14,-110.35,33.96,21.89,9.88,31.05,-16.50,55.50,35.79,118.40,
06/01/2021,01:09:17.14,-359.86,-1035.16,-100.10,34.51,20.67,7.13,32.70,-16.65,56.10,35.98,118.40,
06/01/2021,01:09:17.14,-365.72,-1115.72,-126.95,34.27,20.06,3.23,32.70,-16.65,56.10,35.89,118.40,
06/01/2021,01:09:17.15,-386.23,-1180.66,-139.16,30.37,19.51,-0.43,32.70,-15.90,54.90,35.94,118.40,
06/01/2021,01:09:17.17,-432.62,-1437.01,-250.98,20.18,14.02,-6.52,33.30,-16.05,55.80,35.89,118.40,
06/01/2021,01:09:17.17,-466.31,-1521.97,-257.32,8.84,11.34,-6.95,33.30,-16.05,55.80,35.55,118.40,
06/01/2021,01:09:17.18,-490.72,-1564.45,-267.09,2.44,4.27,-13.84,32.55,-16.80,55.80,35.55,118.40,
06/01/2021,01:09:17.18,-512.21,-1579.10,-319.34,-6.95,-2.93,-15.67,32.55,-16.80,55.80,35.55,118.40,
06/01/2021,01:09:17.19,-568.85,-1520.51,-345.70,-13.66,-9.51,-14.51,32.55,-16.80,55.80,35.79,118.40,
06/01/2021,01:09:17.20,-631.84,-1254.39,-328.61,-16.22,-37.01,-9.09,33.75,-15.45,53.55,35.55,118.40,
06/01/2021,01:09:17.21,-640.14,-1165.04,-312.50,-13.60,-50.18,-9.09,33.75,-15.45,53.55,35.60,118.40,
06/01/2021,01:09:17.22,-626.46,-1114.26,-330.57,-15.00,-62.44,-7.74,34.80,-16.80,55.50,35.75,118.40,
06/01/2021,01:09:17.22,-634.28,-1063.48,-313.48,-13.54,-68.29,-3.29,34.80,-16.80,55.50,35.55,118.40,
06/01/2021,01:09:17.23,-648.93,-1057.62,-318.85,-10.55,-70.85,-1.10,31.95,-16.65,54.15,35.89,118.40,
06/01/2021,01:09:17.25,-572.75,-1065.92,-334.47,-2.38,-43.90,3.72,31.65,-15.15,56.10,35.79,118.40,
06/01/2021,01:09:17.25,-556.64,-1062.50,-308.59,-1.65,-25.67,4.09,31.65,-15.15,56.10,35.79,118.40,
06/01/2021,01:09:17.26,-544.43,-1054.20,-301.76,2.07,-7.93,-0.98,33.30,-16.05,55.80,35.60,118.40,
06/01/2021,01:09:17.26,-516.60,-1017.09,-282.71,3.17,10.49,1.16,33.30,-16.05,55.80,35.79,118.40,
06/01/2021,01:09:17.27,-498.54,-981.93,-267.58,2.80,30.61,-3.41,31.95,-16.20,55.35,35.94,118.40,
06/01/2021,01:09:17.29,-462.40,-921.88,-229.49,5.98,71.95,-2.44,32.40,-15.45,55.35,35.70,118.40,
06/01/2021,01:09:17.29,-445.31,-877.93,-190.92,3.35,83.05,-4.88,32.40,-15.45,54.90,35.70,118.40,
06/01/2021,01:09:17.30,-436.52,-853.03,-160.16,5.43,96.83,-5.61,32.40,-15.45,54.90,35.75,118.40,
06/01/2021,01:09:17.30,-420.41,-831.05,-128.42,6.46,109.39,-5.85,32.40,-15.45,54.90,35.70,118.40,
06/01/2021,01:09:17.31,-410.64,-818.85,-104.49,4.76,115.73,-8.48,33.60,-16.80,54.75,35.60,118.40,
06/01/2021,01:09:17.32,-340.33,-807.13,-28.81,0.12,130.67,-12.38,34.95,-15.90,52.35,35.89,118.40,
06/01/2021,01:09:17.33,-330.57,-808.11,7.32,2.50,129.63,-16.28,34.20,-18.15,52.80,35.60,118.40,
06/01/2021,01:09:17.34,-331.54,-824.22,3.42,-1.52,123.60,-17.80,35.55,-15.75,50.70,35.79,118.40,
06/01/2021,01:09:17.34,-270.51,-819.82,1.46,-1.52,120.91,-18.54,35.55,-15.75,50.70,35.75,118.40,
06/01/2021,01:09:17.35,-279.79,-847.66,17.09,-4.82,110.00,-20.85,34.50,-17.10,51.60,35.75,118.40,
06/01/2021,01:09:17.36,-286.13,-873.54,-2.44,-10.55,81.40,-29.88,35.85,-16.50,48.15,35.75,118.40,
06/01/2021,01:09:17.37,-289.55,-874.02,-3.42,-15.24,70.18,-32.93,35.85,-16.50,48.15,35.75,118.40,
06/01/2021,01:09:17.38,-290.04,-879.39,-5.86,-17.50,60.24,-37.68,33.75,-18.15,48.75,35.89,118.40,
06/01/2021,01:09:17.38,-277.83,-899.41,-9.28,-18.90,47.87,-38.78,33.75,-18.15,48.75,35.79,118.40,
06/01/2021,01:09:17.39,-281.74,-892.09,-4.39,-21.77,37.56,-45.30,33.75,-18.15,48.75,35.60,118.40,
06/01/2021,01:09:17.39,-315.43,-901.37,-4.39,-22.32,27.62,-45.06,33.75,-18.15,48.75,35.94,118.40,
06/01/2021,01:09:17.41,-350.10,-919.43,-17.58,-27.44,8.17,-53.05,35.85,-20.25,47.10,35.70,118.40,
06/01/2021,01:09:17.42,-372.07,-915.04,-25.39,-26.52,-0.61,-55.06,35.85,-18.75,47.40,35.60,118.40,
06/01/2021,01:09:17.42,-390.14,-924.80,-20.51,-27.32,-3.48,-57.38,35.85,-18.75,47.40,35.55,118.40,
06/01/2021,01:09:17.43,-406.74,-918.95,-0.98,-29.09,-10.43,-55.73,33.60,-19.50,47.40,35.55,118.40,
06/01/2021,01:09:17.43,-429.69,-915.53,6.35,-29.21,-16.34,-55.67,33.60,-19.50,47.40,35.79,118.40,
06/01/2021,01:09:17.45,-443.36,-878.42,6.84,-26.71,-18.35,-54.76,35.55,-20.25,47.10,35.60,118.40,
06/01/2021,01:09:17.46,-454.10,-875.00,-0.49,-26.71,-17.13,-50.49,34.80,-22.65,47.85,35.79,118.40,
06/01/2021,01:09:17.46,-466.31,-863.28,8.30,-23.54,-15.43,-47.74,34.80,-22.65,47.85,35.60,118.40,
06/01/2021,01:09:17.47,-469.73,-867.68,3.42,-22.68,-17.20,-44.45,34.50,-21.30,45.75,35.94,118.40,
06/01/2021,01:09:17.47,-465.82,-848.14,7.81,-25.67,-16.22,-39.57,34.50,-21.30,45.75,35.75,118.40,
06/01/2021,01:09:17.49,-459.96,-850.10,27.83,-19.51,-4.70,-28.17,31.95,-23.25,48.00,35.89,118.40,
06/01/2021,01:09:17.50,-462.89,-850.59,19.53,-18.66,-0.43,-22.93,31.95,-23.25,48.00,35.79,118.40,
06/01/2021,01:09:17.50,-468.75,-835.45,33.20,-15.43,2.07,-18.78,31.95,-23.25,48.00,35.79,118.40,
06/01/2021,01:09:17.51,-466.31,-833.50,43.95,-14.94,5.55,-14.21,31.95,-22.35,47.70,35.55,118.40,
06/01/2021,01:09:17.51,-454.10,-842.77,53.22,-15.18,7.93,-10.79,31.95,-22.35,47.70,35.46,118.40,
06/01/2021,01:09:17.53,-445.31,-823.24,49.32,-10.61,14.63,1.28,32.40,-23.55,46.50,35.55,118.40,
06/01/2021,01:09:17.54,-435.55,-838.87,41.99,-5.91,15.18,4.51,32.40,-23.55,46.50,35.89,118.40,
06/01/2021,01:09:17.54,-415.53,-840.82,64.45,-7.13,15.49,8.17,33.60,-23.40,47.10,35.70,118.40,
06/01/2021,01:09:17.60,-384.28,-851.56,69.34,8.23,7.07,19.88,31.65,-23.55,47.70,35.75,118.40,
06/01/2021,01:09:17.61,-384.28,-873.54,61.52,8.29,4.51,19.94,33.30,-22.95,47.10,35.55,118.39,
06/01/2021,01:09:17.63,-376.46,-874.51,54.20,12.80,2.74,19.02,32.55,-22.20,46.80,35.60,118.39,
06/01/2021,01:09:17.63,-366.70,-860.35,51.76,16.28,1.10,16.40,32.55,-22.20,46.80,35.46,118.39,
06/01/2021,01:09:17.64,-389.65,-879.88,38.09,13.84,-1.34,14.33,33.00,-21.60,48.00,35.60,118.39,
06/01/2021,01:09:17.64,-376.95,-884.28,42.97,17.26,-0.91,15.24,33.00,-21.60,48.00,36.08,118.39,
06/01/2021,01:09:17.65,-377.44,-895.02,30.27,21.04,-0.49,13.29,33.30,-21.45,47.40,35.79,118.40,
06/01/2021,01:09:17.66,-379.39,-900.39,31.74,18.35,-1.77,12.62,33.30,-21.45,47.40,35.70,118.40,
06/01/2021,01:09:17.67,-375.49,-911.62,28.32,20.67,-2.50,6.28,32.85,-21.00,47.85,35.60,118.39,
06/01/2021,01:09:17.68,-385.25,-911.62,19.53,23.11,-2.20,5.24,32.85,-21.00,47.85,35.75,118.39,
06/01/2021,01:09:17.68,-381.35,-936.52,5.86,23.05,-0.85,4.45,32.85,-21.00,47.85,35.60,118.40,
06/01/2021,01:09:17.69,-389.65,-924.32,2.44,25.18,-2.80,5.43,33.00,-22.05,48.30,35.89,118.40,
06/01/2021,01:09:17.70,-393.07,-927.25,12.21,26.16,-3.05,1.77,33.00,-22.05,48.30,35.55,118.40,
06/01/2021,01:09:17.71,-390.62,-955.57,-25.88,33.29,2.20,-2.26,33.30,-21.90,50.40,35.89,118.39,
06/01/2021,01:09:17.72,-396.00,-961.91,-15.62,34.09,1.04,-2.44,32.40,-20.55,48.00,35.75,118.40,
06/01/2021,01:09:17.72,-407.71,-986.33,-28.32,34.45,-0.12,-2.68,32.40,-20.55,48.00,35.94,118.40,
06/01/2021,01:09:17.73,-412.11,-1001.95,-26.86,35.49,1.95,-4.45,32.55,-19.95,49.35,35.94,118.40,
06/01/2021,01:09:17.74,-407.71,-1022.46,-33.20,35.79,3.41,-7.01,32.55,-19.95,49.35,35.79,118.40,
06/01/2021,01:09:17.75,-439.94,-1140.14,-5.86,42.62,11.83,-8.35,32.10,-20.25,49.65,35.60,118.40,
06/01/2021,01:09:17.76,-449.22,-1202.15,-1.95,46.71,11.04,-12.68,31.80,-21.90,47.10,35.75,118.40,
06/01/2021,01:09:17.76,-449.71,-1276.37,-21.48,47.44,11.22,-15.49,31.80,-21.90,47.10,35.75,118.40,
06/01/2021,01:09:17.77,-464.36,-1338.38,-8.79,50.12,15.98,-20.30,31.80,-21.90,47.10,35.55,118.40,
06/01/2021,01:09:17.78,-470.70,-1387.70,-21.48,52.99,18.78,-21.52,31.80,-21.90,47.10,35.70,118.40,
06/01/2021,01:09:17.78,-483.89,-1415.04,-49.32,57.62,19.09,-23.90,34.05,-18.75,48.15,35.46,118.40,
06/01/2021,01:09:17.80,-500.00,-1346.68,-125.00,63.72,29.63,-28.23,33.75,-20.10,50.55,35.75,118.40,
06/01/2021,01:09:17.80,-516.60,-1284.18,-166.99,66.52,35.43,-26.10,33.75,-20.10,50.55,36.22,118.40,
06/01/2021,01:09:17.81,-544.92,-1221.19,-200.68,69.88,42.62,-26.77,34.80,-19.95,48.60,35.70,118.40,
06/01/2021,01:09:17.82,-543.46,-1181.64,-241.70,71.16,54.94,-23.48,34.80,-19.95,48.60,35.55,118.40,
06/01/2021,01:09:17.82,-561.52,-1150.39,-279.30,75.55,66.83,-18.84,33.60,-19.95,48.60,35.70,118.40,
06/01/2021,01:09:17.84,-594.24,-1103.52,-344.73,80.79,104.39,-11.10,33.75,-18.60,50.25,35.70,118.40,
06/01/2021,01:09:17.84,-581.54,-1096.19,-354.00,84.02,121.04,-9.88,33.75,-18.60,50.25,35.94,118.40,
06/01/2021,01:09:17.85,-579.59,-1096.68,-374.02,83.11,137.50,-4.88,34.80,-18.45,47.85,35.55,118.40,
06/01/2021,01:09:17.86,-582.03,-1054.69,-396.97,80.30,154.94,-1.89,34.80,-18.45,47.85,35.79,118.40,
06/01/2021,01:09:17.86,-589.36,-1029.30,-381.35,78.17,169.70,4.15,34.80,-18.45,47.85,35.75,118.40,
06/01/2021,01:09:17.88,-547.85,-957.03,-357.42,70.12,199.39,18.11,36.60,-16.50,45.30,35.55,118.40,
06/01/2021,01:09:17.88,-538.09,-950.20,-416.02,62.99,211.59,22.74,36.60,-16.50,45.30,35.60,118.40,
06/01/2021,01:09:17.89,-521.00,-958.98,-503.91,47.56,227.62,28.23,37.20,-17.10,46.20,35.75,118.40,
06/01/2021,01:09:17.90,-597.17,-946.29,-542.48,39.09,243.84,35.98,37.20,-17.10,46.20,35.79,118.40,
06/01/2021,01:09:17.90,-563.96,-952.15,-550.29,34.27,266.83,44.51,38.40,-16.05,42.75,35.94,118.40,
06/01/2021,01:09:17.92,-295.90,-937.50,-517.09,21.65,305.06,42.32,39.90,-15.75,40.95,35.94,118.40,
06/01/2021,01:09:17.92,-219.73,-921.39,-468.26,14.45,306.77,36.89,39.90,-15.75,40.95,35.94,118.40,
06/01/2021,01:09:17.93,-143.07,-925.78,-443.36,8.90,297.13,32.32,41.10,-14.10,40.50,35.79,118.40,
06/01/2021,01:09:17.94,-95.70,-917.48,-400.88,4.33,277.80,30.30,41.10,-14.10,40.50,35.60,118.40,
06/01/2021,01:09:17.94,-40.04,-905.76,-358.89,-5.37,256.28,32.44,41.25,-14.40,37.35,35.79,118.40,
06/01/2021,01:09:17.96,81.05,-925.78,-241.70,-20.79,160.79,42.01,43.05,-15.15,33.75,35.70,118.40,
06/01/2021,01:09:17.96,68.85,-936.52,-222.17,-27.87,122.13,42.74,43.05,-15.15,33.75,35.55,118.40,
06/01/2021,01:09:17.97,42.97,-961.91,-212.89,-34.51,81.10,44.88,43.05,-15.15,33.75,35.79,118.40,
06/01/2021,01:09:17.98,-5.37,-990.72,-187.01,-37.20,45.49,47.93,43.05,-15.15,33.75,35.94,118.40,
06/01/2021,01:09:17.98,-36.13,-1017.09,-193.85,-43.11,15.91,46.22,43.50,-12.00,33.00,35.75,118.40,
06/01/2021,01:09:18.00,-151.37,-1067.87,-163.09,-55.06,-37.99,42.99,44.85,-13.20,32.25,35.89,118.40,
06/01/2021,01:09:18.00,-165.04,-1096.19,-155.27,-57.87,-50.79,39.09,44.85,-13.20,32.25,35.60,118.40,
06/01/2021,01:09:18.01,-160.64,-1101.07,-124.02,-60.43,-61.28,34.09,44.40,-13.05,31.35,35.60,118.40,
06/01/2021,01:09:18.02,-157.23,-1100.59,-81.05,-64.33,-70.24,28.54,44.40,-13.05,31.35,35.89,118.40,
06/01/2021,01:09:18.02,-156.74,-1091.80,-43.95,-67.32,-81.04,26.40,45.45,-11.40,33.60,35.98,118.40,
06/01/2021,01:09:18.04,-188.48,-1060.55,-11.72,-76.52,-116.22,26.10,43.95,-12.60,34.35,36.08,118.40,
06/01/2021,01:09:18.04,-256.35,-1030.27,6.35,-79.15,-134.88,33.41,43.95,-12.60,34.35,35.98,118.40,
06/01/2021,01:09:18.05,-276.86,-1019.53,8.79,-80.91,-146.95,37.68,44.70,-11.40,37.65,35.79,118.40,
06/01/2021,01:09:18.09,-373.54,-895.51,21.00,-78.11,-176.59,45.30,44.55,-12.00,37.05,35.79,118.40,
06/01/2021,01:09:18.10,-403.81,-838.38,6.35,-68.29,-159.15,45.00,44.70,-9.15,42.30,35.75,118.39,
06/01/2021,01:09:18.12,-409.18,-778.81,-20.02,-54.94,-126.10,44.51,44.40,-11.10,42.00,35.79,118.39,
06/01/2021,01:09:18.12,-418.95,-765.14,-24.41,-48.05,-112.44,43.41,44.40,-9.60,44.55,35.55,118.39,
06/01/2021,01:09:18.13,-420.41,-761.23,-37.60,-41.52,-96.52,44.27,44.40,-11.10,44.55,35.70,118.39,
06/01/2021,01:09:18.14,-410.64,-753.42,-52.25,-35.06,-85.37,45.67,44.40,-11.10,44.55,35.70,118.39,
06/01/2021,01:09:18.14,-419.43,-760.74,-46.39,-28.72,-69.70,43.96,45.15,-9.90,45.30,35.70,118.39,
06/01/2021,01:09:18.16,-391.60,-756.84,-66.89,-14.27,-31.16,38.11,45.15,-9.90,45.30,35.94,118.39,
06/01/2021,01:09:18.16,-381.84,-751.46,-61.04,-7.62,-17.20,33.90,44.40,-10.35,46.80,35.89,118.39,
06/01/2021,01:09:18.17,-375.49,-753.42,-55.18,0.24,-2.13,31.95,44.40,-10.35,46.80,35.89,118.39,
06/01/2021,01:09:18.18,-374.02,-746.09,-54.69,4.57,9.70,28.23,44.40,-10.35,46.80,35.79,118.39,
06/01/2021,01:09:18.18,-372.07,-750.98,-78.12,10.43,22.80,27.38,43.65,-9.60,46.80,35.79,118.39,
06/01/2021,01:09:18.19,-369.63,-742.68,-63.96,14.94,37.62,22.38,43.65,-9.60,46.80,35.79,118.40,
06/01/2021,01:09:18.20,-335.94,-749.02,-61.04,26.22,62.07,15.73,45.15,-9.60,45.60,35.70,118.39,
06/01/2021,01:09:18.21,-354.98,-748.05,-47.36,29.70,70.49,10.06,44.40,-8.70,46.05,35.79,118.39,
06/01/2021,01:09:18.21,-342.77,-761.23,-53.71,33.05,75.85,6.52,44.40,-8.70,46.05,35.60,118.39,
06/01/2021,01:09:18.22,-323.73,-744.14,-54.20,34.88,79.57,4.51,45.15,-8.40,45.60,35.79,118.40,
06/01/2021,01:09:18.23,-316.89,-748.54,-48.34,38.60,83.11,0.37,45.15,-8.40,45.60,35.79,118.40,
06/01/2021,01:09:18.24,-319.82,-753.42,-47.85,42.26,85.43,-5.12,47.10,-8.25,43.20,35.55,118.39,
06/01/2021,01:09:18.25,-302.73,-762.21,-55.66,43.72,83.17,-7.32,46.80,-10.05,42.45,35.75,118.39,
06/01/2021,01:09:18.25,-300.78,-754.39,-71.29,45.30,83.66,-8.35,46.80,-10.05,42.45,35.70,118.40,
06/01/2021,01:09:18.26,-300.29,-767.58,-67.38,47.44,82.01,-12.80,46.80,-10.05,42.45,35.75,118.40,
06/01/2021,01:09:18.27,-304.20,-784.18,-81.54,50.30,80.24,-15.98,46.80,-10.05,42.45,35.60,118.40,
06/01/2021,01:09:18.28,-308.59,-815.92,-110.35,53.11,72.44,-19.33,46.80,-10.05,41.40,35.60,118.40,
06/01/2021,01:09:18.29,-300.78,-845.70,-119.14,52.74,69.02,-22.68,45.15,-9.90,40.50,35.89,118.40,
06/01/2021,01:09:18.29,-312.01,-853.52,-127.93,54.45,66.16,-26.22,45.15,-9.90,40.50,35.94,118.40,
06/01/2021,01:09:18.30,-320.80,-868.16,-139.65,52.74,60.24,-26.22,46.65,-7.95,42.75,35.75,118.40,
06/01/2021,01:09:18.31,-318.85,-896.48,-161.62,54.09,61.10,-29.27,46.65,-7.95,42.75,35.79,118.40,
06/01/2021,01:09:18.32,-335.45,-948.24,-180.18,57.56,57.07,-31.10,46.65,-11.40,40.50,35.75,118.40,
06/01/2021,01:09:18.33,-363.28,-973.63,-178.22,56.89,55.98,-35.18,46.35,-10.95,39.90,35.75,118.40,
06/01/2021,01:09:18.33,-366.21,-975.59,-210.45,57.44,56.95,-33.05,46.35,-10.95,39.90,35.89,118.40,
06/01/2021,01:09:18.34,-381.35,-1003.42,-225.10,54.15,53.66,-34.88,48.00,-10.65,39.75,35.22,118.40,
06/01/2021,01:09:18.35,-377.44,-1029.30,-231.45,58.05,53.90,-32.93,48.00,-10.65,39.75,35.94,118.40,
06/01/2021,01:09:18.36,-403.81,-1053.71,-272.95,55.98,59.33,-33.05,47.40,-11.85,39.00,35.79,118.40,
06/01/2021,01:09:18.37,-417.48,-1064.45,-292.48,55.98,60.24,-30.43,47.40,-11.85,39.00,35.75,118.40,
06/01/2021,01:09:18.37,-426.27,-1090.33,-312.50,56.95,63.11,-31.22,47.40,-11.85,39.00,35.60,118.40,
06/01/2021,01:09:18.38,-447.27,-1104.49,-310.55,58.29,65.98,-27.01,47.10,-12.75,39.60,35.79,118.40,
06/01/2021,01:09:18.39,-416.99,-1146.97,-326.17,58.90,67.20,-24.82,47.10,-12.75,39.60,35.79,118.40,
06/01/2021,01:09:18.39,-397.46,-1193.36,-355.47,57.32,64.88,-27.99,47.40,-12.60,39.00,35.79,118.40,
06/01/2021,01:09:18.41,-501.95,-1363.28,-562.50,35.85,51.46,-16.52,47.55,-14.40,38.55,35.79,118.40,
06/01/2021,01:09:18.42,-558.59,-1447.75,-584.47,22.93,45.18,-7.01,47.55,-14.40,38.55,35.55,118.40,
06/01/2021,01:09:18.42,-620.61,-1487.30,-596.19,13.05,41.10,3.90,46.35,-14.40,37.35,35.75,118.40,
06/01/2021,01:09:18.43,-639.16,-1525.39,-649.41,1.83,36.34,6.95,46.35,-14.40,37.35,35.79,118.40,
06/01/2021,01:09:18.43,-630.86,-1505.86,-644.53,-9.39,24.63,10.67,48.75,-14.10,38.25,35.60,118.40,
06/01/2021,01:09:18.45,-692.38,-1268.07,-591.80,-24.94,-23.78,7.01,46.95,-14.55,37.95,35.75,118.40,
06/01/2021,01:09:18.46,-685.55,-1158.20,-579.59,-22.74,-33.23,6.59,46.95,-14.55,37.95,35.75,118.40,
06/01/2021,01:09:18.46,-651.37,-1067.38,-537.60,-26.89,-42.44,7.99,46.95,-14.55,37.95,35.94,118.40,
06/01/2021,01:09:18.47,-591.31,-1000.00,-506.35,-25.00,-48.78,7.07,46.95,-14.55,37.95,35.60,118.40,
06/01/2021,01:09:18.47,-547.85,-965.82,-476.07,-25.37,-48.48,6.52,46.80,-13.50,39.30,35.89,118.40,
06/01/2021,01:09:18.49,-441.41,-957.03,-343.26,-30.24,-49.63,5.67,46.65,-14.55,39.00,35.60,118.40,
06/01/2021,01:09:18.49,-426.76,-945.80,-311.04,-32.13,-42.50,4.88,46.65,-14.55,39.00,35.75,118.40,
06/01/2021,01:09:18.50,-417.97,-942.38,-267.09,-33.29,-36.40,9.09,44.55,-13.50,40.35,35.75,118.40,
06/01/2021,01:09:18.51,-437.50,-938.48,-220.70,-34.39,-29.15,7.26,44.55,-13.50,40.35,35.75,118.40,
06/01/2021,01:09:18.51,-462.40,-929.69,-166.02,-33.60,-20.49,8.17,45.15,-14.55,43.05,35.79,118.40,
06/01/2021,01:09:18.53,-416.99,-922.36,-107.42,-34.45,4.15,1.22,44.40,-15.30,42.30,35.55,118.40,
06/01/2021,01:09:18.53,-418.46,-919.92,-93.26,-36.89,15.24,-5.61,44.40,-15.30,42.30,35.55,118.40,
06/01/2021,01:09:18.54,-383.30,-906.74,-80.08,-34.57,23.90,-12.32,44.85,-14.40,40.35,35.98,118.40,
06/01/2021,01:09:18.55,-394.53,-912.60,-57.62,-34.88,37.13,-13.72,44.85,-14.40,40.35,35.60,118.40,
06/01/2021,01:09:18.55,-388.67,-908.20,-39.55,-36.22,42.50,-15.43,44.85,-14.40,40.35,35.55,118.40,
06/01/2021,01:09:18.60,-392.09,-1014.65,13.18,-44.51,12.44,-13.17,43.05,-15.90,39.60,35.79,118.39,
06/01/2021,01:09:18.61,-392.09,-1014.16,36.62,-43.84,-11.65,-8.05,43.20,-16.05,41.25,35.70,118.39,
06/01/2021,01:09:18.62,-403.81,-1002.44,18.55,-44.82,-20.06,-9.57,43.20,-16.05,41.25,35.70,118.39,
06/01/2021,01:09:18.62,-399.41,-981.93,17.58,-45.06,-29.82,-5.79,42.30,-17.40,39.90,35.75,118.39,
06/01/2021,01:09:18.63,-412.11,-951.17,17.58,-42.56,-35.98,-0.18,41.55,-17.40,41.10,35.79,118.39,
06/01/2021,01:09:18.65,-387.21,-901.37,-26.37,-39.21,-49.94,7.32,41.55,-17.40,41.10,35.79,118.39,
06/01/2021,01:09:18.65,-393.07,-865.72,-23.93,-38.96,-51.95,11.83,41.25,-17.40,41.85,35.94,118.39,
06/01/2021,01:09:18.66,-387.70,-845.70,-32.71,-38.48,-52.80,14.51,41.25,-17.40,41.85,35.70,118.39,
06/01/2021,01:09:18.66,-392.58,-828.12,-22.46,-33.41,-50.18,19.21,41.25,-17.40,41.85,35.79,118.39,
06/01/2021,01:09:18.67,-388.67,-809.08,-36.62,-35.37,-48.23,20.43,39.75,-15.45,41.40,35.79,118.39,
06/01/2021,01:09:18.69,-388.18,-784.67,-33.69,-27.32,-39.15,27.50,41.55,-16.65,41.10,35.60,118.39,
06/01/2021,01:09:18.69,-391.11,-771.97,-26.86,-26.04,-35.85,29.76,40.80,-15.90,42.90,35.70,118.39,
06/01/2021,01:09:18.70,-405.76,-763.67,-26.86,-23.54,-31.59,32.32,40.80,-15.90,42.90,35.94,118.39,
06/01/2021,01:09:18.70,-396.97,-769.04,3.42,-24.82,-26.34,33.66,40.80,-16.65,43.20,35.89,118.39,
06/01/2021,01:09:18.71,-382.32,-765.62,-2.93,-24.76,-22.62,34.33,39.60,-16.80,41.25,36.08,118.39,
06/01/2021,01:09:18.73,-371.58,-751.46,12.21,-22.68,-12.99,36.04,40.65,-16.50,40.20,35.79,118.39,
06/01/2021,01:09:18.73,-358.89,-743.65,23.44,-20.73,-13.05,35.12,40.65,-16.50,40.20,35.55,118.39,
06/01/2021,01:09:18.74,-335.94,-750.00,41.99,-19.33,-12.80,33.35,40.65,-16.50,40.20,35.60,118.39,
06/01/2021,01:09:18.74,-347.17,-763.18,44.43,-20.61,-13.84,32.56,39.30,-16.20,40.65,35.55,118.39,
06/01/2021,01:09:18.75,-311.04,-744.14,37.60,-18.05,-20.98,34.09,39.30,-16.20,40.65,35.89,118.40,
06/01/2021,01:09:18.76,-306.15,-753.42,45.90,-19.82,-19.94,32.56,39.30,-16.20,40.65,35.89,118.40,
06/01/2021,01:09:18.77,-299.80,-758.79,52.73,-18.48,-31.71,23.17,38.85,-16.50,41.25,35.60,118.39,
06/01/2021,01:09:18.78,-283.69,-769.04,72.75,-14.63,-35.79,25.06,38.85,-16.50,41.25,35.75,118.39,
06/01/2021,01:09:18.78,-283.69,-769.53,63.96,-13.54,-40.55,21.52,39.00,-15.15,41.85,35.55,118.40,
06/01/2021,01:09:18.79,-289.55,-781.74,56.64,-16.04,-45.12,18.60,40.65,-13.80,40.95,35.55,118.40,
06/01/2021,01:09:18.80,-296.88,-757.32,63.48,-12.80,-50.91,17.13,40.65,-13.80,40.95,35.55,118.40,
06/01/2021,01:09:18.81,-291.02,-785.16,36.13,-8.90,-59.51,7.99,39.60,-15.75,43.05,35.89,118.39,
06/01/2021,01:09:18.82,-306.15,-788.09,47.36,-9.27,-62.62,6.77,39.60,-15.75,43.05,35.89,118.40,
06/01/2021,01:09:18.82,-299.80,-797.85,39.55,-8.29,-67.26,3.41,39.60,-15.75,43.05,35.70,118.40,
06/01/2021,01:09:18.83,-311.52,-819.82,35.64,-6.22,-67.44,1.04,39.15,-14.10,42.75,35.79,118.40,
06/01/2021,01:09:18.84,-319.34,-811.04,34.67,-3.72,-67.38,-1.83,39.15,-14.10,42.75,35.60,118.40,
06/01/2021,01:09:18.85,-330.57,-849.61,17.58,2.56,-71.40,-11.89,37.50,-15.45,43.20,35.70,118.40,
06/01/2021,01:09:18.86,-334.96,-873.54,18.07,2.99,-71.83,-12.44,37.50,-15.45,43.20,35.75,118.40,
06/01/2021,01:09:18.86,-335.94,-895.51,-0.98,4.57,-70.79,-20.30,39.00,-15.90,43.65,35.75,118.40,
06/01/2021,01:09:18.87,-346.68,-908.20,-7.32,4.39,-69.21,-21.65,38.40,-16.05,44.85,35.75,118.40,
06/01/2021,01:09:18.88,-347.17,-934.08,2.44,8.72,-69.82,-25.43,38.40,-16.05,44.85,35.55,118.40,
06/01/2021,01:09:18.89,-363.77,-992.68,-14.16,11.40,-63.66,-36.04,36.15,-16.80,45.60,35.75,118.40,
06/01/2021,01:09:18.90,-365.72,-1018.07,-32.23,15.37,-62.20,-39.57,36.15,-16.80,45.60,35.79,118.40,
06/01/2021,01:09:18.90,-368.16,-1043.46,-39.55,18.05,-60.18,-44.70,36.00,-14.40,46.20,35.94,118.40,
06/01/2021,01:09:18.91,-376.95,-1063.96,-39.55,18.54,-59.82,-47.93,36.75,-16.65,45.75,35.60,118.40,
06/01/2021,01:09:18.92,-381.35,-1068.85,-54.69,22.20,-54.39,-54.27,36.75,-16.65,45.75,35.79,118.40,
06/01/2021,01:09:18.93,-404.30,-1091.80,-113.28,24.51,-49.94,-62.20,37.35,-14.85,44.55,35.94,118.40,
06/01/2021,01:09:18.94,-412.60,-1100.10,-145.51,25.18,-46.10,-65.06,37.35,-14.85,44.55,35.55,118.40,
06/01/2021,01:09:18.94,-418.46,-1115.23,-138.67,26.95,-42.99,-69.76,35.10,-16.50,45.60,35.98,118.40,
06/01/2021,01:09:18.95,-428.22,-1123.54,-160.64,26.16,-38.96,-70.85,35.10,-16.50,45.60,35.94,118.40,
06/01/2021,01:09:18.96,-439.94,-1141.60,-175.29,30.49,-35.37,-74.88,35.10,-16.50,45.60,35.75,118.40,
06/01/2021,01:09:18.97,-468.75,-1226.56,-216.80,33.90,-20.00,-82.26,34.80,-18.45,46.80,35.79,118.40,
06/01/2021,01:09:18.98,-477.54,-1288.57,-236.82,37.74,-15.06,-86.04,34.80,-18.45,46.80,35.98,118.40,
06/01/2021,01:09:18.98,-501.46,-1349.61,-271.48,40.49,-8.41,-86.59,35.85,-18.75,48.15,35.60,118.40,
06/01/2021,01:09:18.99,-515.62,-1396.00,-303.71,39.51,-0.12,-93.48,36.45,-21.60,47.70,35.46,118.40,
06/01/2021,01:09:19.00,-538.09,-1444.82,-326.17,42.32,6.95,-93.54,36.45,-21.60,47.70,35.70,118.40,
06/01/2021,01:09:19.01,-556.64,-1413.57,-424.80,43.48,25.73,-92.99,34.20,-20.55,47.70,35.60,118.40,
06/01/2021,01:09:19.02,-559.08,-1359.38,-454.10,44.39,34.02,-90.61,34.20,-20.55,47.70,35.55,118.40,
06/01/2021,01:09:19.02,-551.76,-1303.71,-470.21,43.60,37.32,-91.34,34.20,-20.55,47.70,35.60,118.40,
06/01/2021,01:09:19.03,-522.46,-1262.21,-461.43,41.10,42.38,-88.48,34.80,-21.00,46.35,35.79,118.40,
06/01/2021,01:09:19.04,-516.60,-1205.57,-474.61,40.30,48.78,-85.55,34.80,-21.00,46.35,35.79,118.40,
06/01/2021,01:09:19.05,-501.95,-1083.98,-432.62,32.44,60.73,-73.78,32.85,-22.65,46.05,35.79,118.40,
06/01/2021,01:09:19.06,-471.68,-1049.32,-338.87,27.68,58.90,-67.68,32.85,-22.65,46.05,35.60,118.40,
06/01/2021,01:09:19.07,-441.89,-1000.00,-361.33,22.56,55.61,-63.41,32.85,-21.90,46.80,35.94,118.40,
06/01/2021,01:09:19.07,-387.70,-967.29,-410.16,10.85,49.88,-57.38,34.05,-23.40,44.10,35.79,118.40,
06/01/2021,01:09:19.11,-316.41,-819.82,-512.21,-30.91,-6.46,-5.85,33.75,-24.00,43.95,35.79,118.39,
06/01/2021,01:09:19.12,-265.62,-861.82,-414.55,-43.96,-47.07,-8.60,33.30,-24.15,44.85,35.94,118.39,
06/01/2021,01:09:19.14,-308.59,-844.73,-315.92,-49.39,-65.61,5.55,33.30,-24.15,44.85,35.79,118.39,
06/01/2021,01:09:19.14,-320.80,-855.47,-283.69,-50.18,-69.94,11.40,34.05,-24.15,44.85,35.98,118.39,
06/01/2021,01:09:19.15,-312.50,-849.12,-254.39,-49.33,-73.90,12.93,34.05,-24.15,44.85,35.60,118.39,
06/01/2021,01:09:19.16,-320.80,-858.40,-213.38,-54.94,-79.09,14.70,34.20,-23.25,43.95,35.89,118.39,
06/01/2021,01:09:19.16,-330.08,-870.12,-206.54,-55.55,-84.70,15.12,32.10,-25.65,42.75,35.70,118.39,
06/01/2021,01:09:19.18,-341.80,-889.65,-141.60,-65.85,-89.82,15.12,34.05,-25.35,43.50,35.70,118.39,
06/01/2021,01:09:19.18,-336.43,-921.88,-114.75,-68.96,-92.93,18.23,32.55,-24.90,44.10,35.79,118.39,
06/01/2021,01:09:19.19,-350.10,-937.01,-81.54,-71.04,-96.28,19.51,32.55,-24.90,44.10,35.46,118.39,
06/01/2021,01:09:19.20,-340.82,-956.54,-69.34,-70.79,-96.95,20.55,32.85,-25.35,44.55,35.75,118.39,
06/01/2021,01:09:19.20,-347.66,-962.89,-41.99,-76.65,-102.99,20.24,32.85,-25.35,44.55,35.89,118.39,
06/01/2021,01:09:19.22,-333.50,-955.57,-24.41,-79.76,-108.11,26.71,33.30,-26.10,44.10,35.79,118.39,
06/01/2021,01:09:19.22,-333.50,-936.04,-8.30,-81.89,-114.51,27.87,33.30,-26.10,44.10,35.94,118.39,
06/01/2021,01:09:19.23,-333.50,-918.46,7.32,-81.46,-120.18,29.82,33.30,-26.10,44.10,35.70,118.39,
06/01/2021,01:09:19.24,-335.94,-911.62,2.93,-81.59,-126.59,31.40,30.60,-25.65,44.55,35.79,118.39,
06/01/2021,01:09:19.24,-333.01,-911.13,25.88,-84.09,-136.52,33.05,31.20,-26.70,44.40,35.60,118.39,
06/01/2021,01:09:19.26,-334.47,-853.52,30.76,-80.43,-155.61,41.46,30.90,-25.80,46.95,35.75,118.39,
06/01/2021,01:09:19.26,-330.08,-847.66,48.34,-76.34,-161.71,45.00,29.25,-24.90,47.40,35.75,118.39,
06/01/2021,01:09:19.27,-326.17,-832.52,35.64,-77.20,-166.77,44.45,29.25,-24.90,47.40,35.70,118.39,
06/01/2021,01:09:19.28,-340.33,-816.89,45.90,-74.27,-172.32,47.80,30.15,-25.80,46.20,35.89,118.39,
06/01/2021,01:09:19.28,-338.38,-822.27,31.74,-70.91,-173.23,50.73,29.55,-26.10,46.35,35.55,118.39,
06/01/2021,01:09:19.30,-356.93,-785.16,31.25,-57.07,-175.67,54.76,29.85,-25.65,46.35,35.55,118.39,
