rtcDate,rtcTime,aX,aY,aZ,gX,gY,gZ,mX,mY,mZ,imu_degC,output_Hz,
06/01/2021,01:09:03.13,453.12,-1039.06,-114.26,-10.37,-17.13,-72.13,-162.15,-47.10,-5.40,34.74,118.44,
06/01/2021,01:09:03.18,404.79,-995.12,-62.99,-21.59,-27.80,-71.83,-163.95,-42.90,-5.40,34.40,118.43,
06/01/2021,01:09:03.20,381.35,-970.21,-51.76,-23.72,-26.89,-71.59,-162.75,-45.00,-7.35,34.36,118.43,
06/01/2021,01:09:03.20,376.95,-969.73,-43.95,-25.73,-25.30,-73.66,-162.75,-45.00,-7.35,34.40,118.43,
06/01/2021,01:09:03.21,366.70,-967.77,-36.13,-24.45,-22.07,-75.06,-162.60,-43.35,-7.95,34.69,118.43,
06/01/2021,01:09:03.22,345.70,-933.11,-48.83,-24.45,-12.99,-77.93,-163.65,-42.90,-7.20,34.69,118.43,
06/01/2021,01:09:03.23,336.43,-958.01,-34.18,-25.49,-11.52,-79.39,-163.65,-42.90,-7.20,34.55,118.43,
06/01/2021,01:09:03.24,339.36,-935.55,-42.97,-24.45,-8.17,-80.30,-163.20,-44.40,-9.00,34.40,118.43,
06/01/2021,01:09:03.24,327.64,-927.73,-40.53,-22.32,-4.33,-84.02,-163.20,-44.40,-9.00,34.55,118.43,
06/01/2021,01:09:03.25,330.57,-926.27,-25.88,-22.74,1.22,-84.09,-162.90,-43.35,-8.25,34.74,118.43,
06/01/2021,01:09:03.26,324.71,-923.83,-16.11,-22.50,5.98,-90.67,-162.90,-43.35,-8.25,34.93,118.43,
06/01/2021,01:09:03.27,312.01,-905.76,-14.16,-21.40,12.56,-90.67,-165.60,-42.75,-7.05,34.64,118.43,
06/01/2021,01:09:03.28,309.08,-904.79,-14.65,-21.16,13.23,-93.17,-165.00,-41.10,-9.30,34.69,118.43,
06/01/2021,01:09:03.28,315.43,-914.06,-15.14,-21.52,17.13,-96.10,-165.00,-41.10,-9.30,34.36,118.43,
06/01/2021,01:09:03.29,314.94,-903.32,-4.39,-19.27,17.80,-96.59,-165.00,-41.10,-9.30,34.50,118.43,
06/01/2021,01:09:03.30,299.80,-897.95,-5.86,-18.05,18.84,-98.11,-163.95,-42.15,-9.60,34.55,118.43,
06/01/2021,01:09:03.31,281.25,-885.25,0.49,-17.74,20.12,-95.85,-167.10,-42.45,-6.30,34.55,118.43,
06/01/2021,01:09:03.32,289.06,-886.23,5.37,-17.62,20.30,-100.00,-167.10,-42.45,-6.30,34.74,118.43,
06/01/2021,01:09:03.32,273.44,-872.07,2.93,-18.66,20.37,-96.04,-167.10,-42.45,-6.30,34.64,118.43,
06/01/2021,01:09:03.33,278.32,-871.09,8.30,-16.59,21.40,-98.90,-165.30,-40.50,-7.65,34.64,118.43,
06/01/2021,01:09:03.34,259.77,-856.45,-12.70,-17.38,25.06,-95.55,-164.70,-40.35,-8.55,34.93,118.43,
06/01/2021,01:09:03.35,266.60,-845.70,-5.86,-16.77,22.50,-92.56,-164.70,-40.35,-8.55,34.50,118.43,
06/01/2021,01:09:03.35,264.16,-839.84,-7.32,-17.32,25.18,-92.44,-164.70,-38.85,-8.25,34.64,118.43,
06/01/2021,01:09:03.36,245.12,-825.20,3.91,-18.72,24.82,-89.63,-164.70,-38.85,-8.25,34.74,118.43,
06/01/2021,01:09:03.37,259.77,-831.54,-7.32,-17.99,27.80,-86.52,-163.95,-39.60,-8.55,34.64,118.43,
06/01/2021,01:09:03.38,254.39,-806.64,-10.74,-19.82,27.44,-77.38,-165.30,-39.45,-7.65,34.74,118.43,
06/01/2021,01:09:03.39,243.16,-835.45,-21.00,-19.76,31.77,-74.15,-167.10,-40.20,-4.50,34.40,118.43,
06/01/2021,01:09:03.39,242.68,-838.38,0.00,-21.46,31.10,-72.26,-164.10,-37.95,-6.00,34.36,118.43,
06/01/2021,01:09:03.40,230.96,-836.91,-14.16,-19.94,31.65,-68.35,-164.10,-37.95,-6.00,34.64,118.43,
06/01/2021,01:09:03.41,228.52,-854.00,-6.35,-20.00,35.00,-59.57,-164.40,-37.80,-8.55,34.64,118.43,
06/01/2021,01:09:03.42,230.96,-870.12,4.88,-22.50,39.94,-50.67,-164.55,-36.75,-7.05,34.50,118.43,
06/01/2021,01:09:03.43,225.59,-869.14,0.98,-21.71,37.50,-45.73,-166.80,-40.05,-5.70,34.36,118.43,
06/01/2021,01:09:03.43,242.68,-890.14,-8.30,-22.38,42.99,-39.45,-165.00,-37.05,-6.15,34.31,118.43,
06/01/2021,01:09:03.44,244.14,-900.88,-10.74,-21.52,42.99,-30.12,-165.00,-37.05,-6.15,34.40,118.43,
06/01/2021,01:09:03.45,238.28,-940.43,-21.48,-23.41,43.72,-27.32,-165.00,-37.05,-6.15,34.50,118.43,
06/01/2021,01:09:03.46,266.11,-961.91,-33.20,-24.70,46.16,-6.16,-164.85,-37.20,-7.35,34.64,118.43,
06/01/2021,01:09:03.47,263.18,-966.80,-47.36,-23.29,46.34,-1.28,-167.55,-38.55,-5.10,34.55,118.43,
06/01/2021,01:09:03.47,268.07,-957.03,-39.06,-25.24,44.09,3.54,-167.55,-38.55,-5.10,34.64,118.43,
06/01/2021,01:09:03.48,270.51,-960.94,-41.02,-27.13,46.10,8.41,-167.55,-38.55,-5.10,34.64,118.43,
06/01/2021,01:09:03.49,300.29,-980.96,-29.79,-26.83,46.52,19.70,-164.70,-37.35,-6.90,34.74,118.43,
06/01/2021,01:09:03.49,259.77,-1023.44,-38.57,-26.28,42.20,27.56,-164.70,-37.35,-6.90,34.64,118.43,
06/01/2021,01:09:03.51,278.32,-1125.98,-18.55,-27.44,48.90,52.62,-165.00,-37.05,-6.45,34.40,118.43,
06/01/2021,01:09:03.51,289.55,-1203.12,-29.30,-28.05,50.24,66.77,-165.00,-39.60,-2.25,34.55,118.43,
06/01/2021,01:09:03.52,311.04,-1214.84,-35.16,-26.77,50.79,74.57,-165.00,-39.60,-2.25,34.55,118.43,
06/01/2021,01:09:03.53,335.45,-1215.82,-49.80,-25.37,48.05,83.90,-163.20,-38.10,-7.95,34.55,118.43,
06/01/2021,01:09:03.53,359.86,-1190.92,-52.25,-25.61,45.98,91.22,-163.20,-38.10,-7.95,34.55,118.43,
06/01/2021,01:09:03.55,404.30,-1090.82,-146.48,-25.06,36.59,107.56,-164.70,-39.60,-3.60,34.64,118.43,
06/01/2021,01:09:03.55,400.39,-1076.17,-177.73,-20.85,31.34,116.83,-164.55,-40.95,-4.95,34.64,118.43,
06/01/2021,01:09:03.56,433.59,-1042.97,-205.08,-22.44,27.20,122.68,-164.55,-40.95,-4.95,34.50,118.43,
06/01/2021,01:09:03.57,443.36,-1028.32,-238.28,-22.93,20.73,124.15,-163.20,-40.80,-5.40,34.31,118.43,
06/01/2021,01:09:03.57,465.33,-990.23,-267.58,-22.74,17.62,125.79,-163.20,-40.80,-5.40,34.40,118.43,
06/01/2021,01:09:03.59,492.19,-877.44,-306.15,-23.17,3.41,125.06,-162.75,-43.20,-3.75,34.64,118.43,
06/01/2021,01:09:03.59,482.91,-863.28,-324.22,-24.39,-3.54,129.33,-163.95,-43.35,-5.10,34.55,118.43,
06/01/2021,01:09:03.60,467.77,-847.66,-323.73,-23.84,-5.79,126.95,-163.95,-43.35,-5.10,34.40,118.43,
06/01/2021,01:09:03.61,472.66,-842.29,-344.73,-24.02,-9.09,122.32,-161.40,-42.90,-4.65,34.88,118.43,
06/01/2021,01:09:03.61,446.78,-868.65,-341.31,-26.52,-8.72,119.09,-161.40,-42.90,-4.65,34.50,118.43,
06/01/2021,01:09:03.63,410.16,-912.11,-318.85,-28.48,-4.76,112.32,-160.35,-43.35,-4.65,34.69,118.43,
06/01/2021,01:09:03.63,403.32,-928.22,-326.17,-28.23,0.30,110.79,-160.35,-43.35,-4.65,34.55,118.43,
06/01/2021,01:09:03.64,391.60,-955.57,-291.99,-30.73,4.94,103.60,-160.35,-43.35,-4.65,34.40,118.43,
06/01/2021,01:09:03.67,359.86,-1055.66,-295.41,-38.35,61.16,86.34,-160.50,-46.50,-4.50,34.74,118.43,
06/01/2021,01:09:03.69,372.07,-1061.04,-244.63,-42.07,86.59,75.37,-158.40,-45.00,-6.00,34.40,118.43,
06/01/2021,01:09:03.70,414.55,-1065.92,-220.70,-44.82,111.16,62.99,-157.80,-47.10,-4.65,34.69,118.43,
06/01/2021,01:09:03.71,431.15,-1043.46,-211.43,-46.10,119.27,60.79,-157.80,-47.10,-4.65,34.50,118.43,
06/01/2021,01:09:03.72,437.50,-1022.46,-193.36,-44.51,124.51,56.83,-157.35,-46.95,-6.00,34.40,118.43,
06/01/2021,01:09:03.72,448.73,-1001.46,-180.66,-44.57,125.49,52.44,-157.35,-46.95,-6.00,34.50,118.43,
06/01/2021,01:09:03.73,460.45,-974.12,-164.55,-45.18,125.55,51.34,-157.35,-46.95,-6.00,34.40,118.43,
06/01/2021,01:09:03.74,466.31,-923.34,-129.39,-42.68,122.87,42.62,-155.25,-51.60,-4.35,34.50,118.43,
06/01/2021,01:09:03.75,448.73,-889.16,-111.33,-42.99,116.89,41.34,-155.25,-51.60,-4.35,34.40,118.43,
06/01/2021,01:09:03.76,466.80,-864.75,-101.56,-42.38,115.79,39.70,-155.25,-51.60,-4.35,34.83,118.43,
06/01/2021,01:09:03.76,471.19,-840.33,-77.15,-39.70,110.79,35.24,-153.00,-49.50,-5.55,34.64,118.43,
06/01/2021,01:09:03.77,448.24,-829.59,-74.22,-39.09,104.15,36.16,-153.00,-49.50,-5.55,34.69,118.43,
06/01/2021,01:09:03.78,441.41,-801.76,-55.66,-37.07,94.09,32.07,-153.00,-48.75,-4.95,34.64,118.43,
06/01/2021,01:09:03.79,444.34,-801.76,-41.99,-36.95,88.84,27.68,-153.00,-48.75,-4.95,34.64,118.43,
06/01/2021,01:09:03.80,439.94,-789.06,-38.57,-37.56,84.39,30.98,-153.15,-50.10,-5.70,34.74,118.43,
06/01/2021,01:09:03.80,410.64,-784.18,-47.85,-33.17,77.01,31.28,-150.75,-50.25,-6.00,34.64,118.43,
06/01/2021,01:09:03.81,427.73,-782.71,-32.23,-30.91,73.23,33.23,-150.75,-50.25,-6.00,34.64,118.43,
06/01/2021,01:09:03.82,410.64,-785.16,-30.27,-28.17,65.49,32.32,-152.10,-50.10,-4.65,34.64,118.43,
06/01/2021,01:09:03.83,411.13,-774.90,-33.20,-28.48,58.17,41.16,-152.10,-50.10,-4.65,34.50,118.43,
06/01/2021,01:09:03.84,415.53,-789.55,-25.39,-27.20,56.71,39.82,-151.05,-50.10,-4.35,34.83,118.43,
06/01/2021,01:09:03.84,416.02,-782.23,-44.92,-24.70,53.23,41.89,-150.75,-51.00,-7.35,34.64,118.43,
06/01/2021,01:09:03.85,420.90,-787.11,-35.16,-24.94,49.51,42.87,-150.75,-51.00,-7.35,34.64,118.43,
06/01/2021,01:09:03.86,437.01,-790.04,-53.71,-18.23,38.41,56.89,-149.70,-52.05,-4.50,34.50,118.43,
06/01/2021,01:09:03.87,447.75,-784.18,-42.97,-18.48,38.35,58.41,-149.70,-52.05,-4.50,34.74,118.43,
06/01/2021,01:09:03.87,450.68,-805.18,-49.32,-17.01,31.46,62.32,-147.00,-48.90,-5.40,34.69,118.43,
06/01/2021,01:09:03.88,469.73,-789.06,-63.48,-18.84,30.24,63.11,-147.00,-48.90,-5.40,34.83,118.43,
06/01/2021,01:09:03.89,475.10,-782.71,-64.45,-13.35,22.13,69.45,-147.00,-48.90,-5.40,34.74,118.43,
06/01/2021,01:09:03.90,496.58,-802.25,-67.38,-9.57,11.83,72.07,-147.75,-52.65,-5.40,34.40,118.43,
06/01/2021,01:09:03.91,495.12,-811.52,-78.12,-8.05,4.88,74.09,-147.75,-52.65,-5.40,34.50,118.43,
06/01/2021,01:09:03.91,496.09,-804.69,-79.59,-7.13,2.32,73.41,-147.75,-52.65,-5.40,34.40,118.43,
06/01/2021,01:09:03.92,521.48,-811.04,-83.01,-5.24,-2.32,73.84,-146.40,-52.05,-7.05,34.64,118.43,
06/01/2021,01:09:03.93,526.37,-808.59,-92.77,-3.96,-4.02,76.04,-146.40,-52.05,-7.05,34.64,118.43,
06/01/2021,01:09:03.94,544.92,-822.75,-111.33,1.04,-13.29,74.21,-145.50,-51.90,-5.10,34.21,118.43,
06/01/2021,01:09:03.95,566.41,-813.96,-126.95,2.80,-21.40,70.98,-145.50,-51.90,-5.10,34.31,118.43,
06/01/2021,01:09:03.95,562.01,-838.87,-134.28,4.63,-22.38,71.10,-145.50,-51.15,-5.70,34.50,118.43,
06/01/2021,01:09:03.96,562.99,-843.26,-134.28,7.01,-24.39,65.67,-143.55,-52.05,-6.60,34.40,118.43,
06/01/2021,01:09:03.97,573.24,-870.61,-146.97,9.33,-33.48,63.60,-143.55,-52.05,-6.60,34.40,118.43,
06/01/2021,01:09:03.98,605.47,-927.25,-155.27,14.57,-31.16,57.20,-144.90,-50.40,-5.40,34.64,118.43,
06/01/2021,01:09:03.99,594.73,-957.03,-158.20,12.26,-32.38,50.37,-144.90,-50.40,-5.40,34.69,118.43,
06/01/2021,01:09:03.99,602.05,-973.63,-171.88,16.22,-30.06,46.83,-144.90,-51.15,-7.20,34.55,118.43,
06/01/2021,01:09:04.00,601.56,-1005.86,-164.55,18.23,-31.16,39.88,-144.60,-52.80,-6.30,34.55,118.43,
06/01/2021,01:09:04.01,608.40,-1046.39,-178.71,17.62,-29.21,35.49,-144.60,-52.80,-6.30,34.64,118.43,
06/01/2021,01:09:04.02,619.63,-1059.08,-195.31,22.50,-24.15,22.26,-145.95,-51.90,-5.10,34.64,118.43,
06/01/2021,01:09:04.03,617.68,-1065.43,-194.34,21.22,-25.30,13.17,-145.95,-51.90,-5.10,34.50,118.43,
06/01/2021,01:09:04.03,622.56,-1070.31,-193.36,23.54,-17.38,8.35,-144.30,-51.00,-6.30,34.64,118.43,
06/01/2021,01:09:04.04,607.91,-1080.08,-207.52,26.28,-17.93,2.13,-143.70,-50.10,-5.10,34.50,118.43,
06/01/2021,01:09:04.05,600.59,-1074.22,-196.29,28.90,-14.45,-1.95,-143.70,-50.10,-5.10,34.55,118.43,
06/01/2021,01:09:04.05,580.08,-1105.47,-201.66,28.23,-12.99,-7.44,-144.60,-50.25,-6.00,34.64,118.43,
06/01/2021,01:09:04.07,626.46,-1282.71,-215.33,30.98,-2.32,-12.87,-144.30,-51.75,-4.95,34.31,118.43,
06/01/2021,01:09:04.07,661.13,-1336.43,-230.96,28.48,-4.82,-13.78,-144.30,-51.75,-4.95,34.64,118.43,
06/01/2021,01:09:04.08,687.01,-1394.04,-217.29,26.65,-7.74,-17.74,-144.15,-51.15,-6.15,34.64,118.43,
06/01/2021,01:09:04.09,731.45,-1400.39,-199.71,22.32,-12.32,-20.98,-144.15,-51.15,-6.15,34.64,118.43,
06/01/2021,01:09:04.09,726.07,-1396.48,-197.75,22.87,-13.41,-25.06,-145.95,-50.10,-5.10,34.64,118.43,
06/01/2021,01:09:04.11,705.08,-1310.55,-177.73,17.68,-22.26,-36.65,-145.95,-50.10,-5.10,34.64,118.43,
06/01/2021,01:09:04.11,677.73,-1287.60,-165.53,17.32,-26.52,-41.04,-146.25,-52.65,-3.30,34.69,118.43,
06/01/2021,01:09:04.12,655.27,-1264.65,-166.02,15.61,-27.13,-47.32,-144.45,-50.85,-5.70,34.88,118.43,
06/01/2021,01:09:04.13,642.58,-1249.02,-163.09,15.12,-28.54,-56.34,-144.45,-50.85,-5.70,34.69,118.43,
06/01/2021,01:09:04.13,613.28,-1228.52,-152.83,16.89,-32.13,-61.95,-144.45,-50.85,-5.70,34.64,118.43,
06/01/2021,01:09:04.15,559.57,-1160.64,-157.71,19.76,-37.68,-78.05,-145.35,-49.80,-4.20,34.55,118.43,
06/01/2021,01:09:04.18,512.21,-1100.10,-152.83,22.13,-45.85,-105.30,-149.10,-49.65,-1.80,34.64,118.43,
06/01/2021,01:09:04.20,464.84,-1067.87,-133.30,20.79,-51.77,-110.73,-148.65,-49.05,-3.45,34.69,118.43,
06/01/2021,01:09:04.20,448.24,-1057.62,-131.84,22.68,-54.57,-114.51,-151.20,-49.80,-1.65,34.64,118.43,
06/01/2021,01:09:04.22,434.57,-1050.29,-133.30,19.21,-60.06,-117.20,-149.55,-48.60,-3.00,34.36,118.43,
06/01/2021,01:09:04.22,423.34,-1053.71,-115.72,17.38,-61.22,-117.26,-151.65,-51.15,-1.80,34.50,118.43,
06/01/2021,01:09:04.23,418.95,-1037.11,-104.00,16.40,-61.65,-115.98,-150.30,-48.60,-5.10,34.74,118.43,
06/01/2021,01:09:04.24,408.20,-1063.48,-113.28,15.24,-61.77,-119.15,-150.30,-48.60,-5.10,34.69,118.43,
06/01/2021,01:09:04.24,401.86,-1045.90,-99.61,13.78,-63.48,-119.15,-151.65,-47.85,-3.30,34.50,118.43,
06/01/2021,01:09:04.26,379.88,-1042.48,-74.22,6.65,-66.28,-114.21,-154.80,-48.30,-2.70,34.21,118.43,
06/01/2021,01:09:04.26,366.70,-1034.18,-63.48,5.55,-65.37,-115.06,-154.80,-48.30,-2.70,34.69,118.43,
06/01/2021,01:09:04.27,355.47,-1040.53,-68.36,3.84,-63.96,-113.84,-155.25,-46.65,-5.10,34.50,118.43,
06/01/2021,01:09:04.28,343.26,-1031.74,-57.62,2.32,-62.68,-111.83,-155.25,-46.65,-5.10,34.55,118.43,
06/01/2021,01:09:04.28,337.89,-1036.13,-48.83,1.46,-60.67,-111.34,-154.95,-46.65,-3.60,34.74,118.43,
06/01/2021,01:09:04.30,322.27,-1031.25,-28.32,-0.73,-54.21,-109.94,-156.75,-46.35,-2.55,34.50,118.43,
06/01/2021,01:09:04.30,314.45,-1006.84,-21.48,-2.50,-50.79,-108.72,-156.75,-46.35,-2.55,34.40,118.43,
06/01/2021,01:09:04.31,304.69,-1008.79,-33.69,-2.32,-47.74,-111.46,-157.05,-45.90,-6.45,34.64,118.43,
06/01/2021,01:09:04.32,299.32,-1005.37,-28.32,-2.93,-46.89,-109.02,-157.05,-45.90,-6.45,34.40,118.43,
06/01/2021,01:09:04.32,297.36,-992.19,-17.09,-1.16,-43.54,-109.09,-157.05,-45.90,-6.45,34.50,118.43,
06/01/2021,01:09:04.34,290.04,-979.00,4.39,-3.35,-36.22,-108.54,-161.10,-46.35,-3.60,34.69,118.43,
06/01/2021,01:09:04.34,284.18,-964.36,-11.72,-4.33,-31.89,-107.44,-161.10,-46.35,-3.60,34.50,118.43,
06/01/2021,01:09:04.35,275.88,-944.82,-11.23,-3.66,-25.55,-107.80,-161.10,-46.35,-3.60,34.64,118.43,
06/01/2021,01:09:04.36,284.18,-938.48,-15.14,-3.54,-22.13,-106.28,-161.10,-46.35,-3.60,34.50,118.43,
06/01/2021,01:09:04.36,270.51,-930.18,3.42,-3.17,-21.77,-106.83,-160.95,-43.50,-4.50,34.40,118.43,
06/01/2021,01:09:04.38,269.04,-911.62,20.02,-1.28,-14.09,-106.46,-159.75,-42.75,-5.25,34.74,118.43,
06/01/2021,01:09:04.38,261.72,-900.39,17.58,0.00,-12.13,-105.00,-159.75,-42.75,-5.25,34.55,118.43,
06/01/2021,01:09:04.39,267.58,-894.53,15.62,0.49,-12.01,-103.11,-161.25,-43.20,-6.00,34.74,118.43,
06/01/2021,01:09:04.40,271.00,-889.16,25.88,2.20,-10.85,-103.54,-161.25,-43.20,-6.00,34.88,118.43,
06/01/2021,01:09:04.40,258.30,-876.46,24.90,0.73,-7.56,-103.90,-162.90,-42.90,-6.15,34.55,118.43,
06/01/2021,01:09:04.41,253.42,-872.07,35.16,2.20,-7.50,-104.88,-162.90,-42.90,-6.15,34.55,118.43,
06/01/2021,01:09:04.42,258.79,-846.19,23.93,4.02,-5.24,-99.63,-163.20,-42.15,-3.60,34.50,118.43,
06/01/2021,01:09:04.43,246.09,-842.77,17.58,4.63,-6.04,-98.05,-165.75,-43.35,-3.60,34.40,118.43,
06/01/2021,01:09:04.43,250.98,-841.80,21.48,3.17,-4.27,-94.39,-165.75,-43.35,-3.60,34.64,118.43,
06/01/2021,01:09:04.44,260.74,-821.78,31.74,3.66,-4.51,-93.41,-162.90,-41.10,-6.45,34.50,118.43,
06/01/2021,01:09:04.45,239.26,-817.38,28.32,7.32,-5.61,-90.12,-162.90,-41.10,-6.45,34.55,118.43,
06/01/2021,01:09:04.46,231.45,-794.43,16.60,4.76,-1.28,-84.76,-163.50,-41.70,-4.50,34.50,118.43,
06/01/2021,01:09:04.47,225.10,-805.18,25.88,5.00,1.52,-80.61,-165.75,-39.60,-5.40,34.31,118.43,
06/01/2021,01:09:04.47,230.96,-792.48,24.41,4.33,4.09,-80.06,-165.75,-39.60,-5.40,34.50,118.43,
06/01/2021,01:09:04.48,224.61,-798.34,10.25,4.33,2.62,-74.21,-163.65,-40.05,-6.15,34.50,118.43,
06/01/2021,01:09:04.49,223.14,-795.41,-0.49,5.37,3.66,-68.23,-163.65,-40.05,-6.15,34.64,118.43,
06/01/2021,01:09:04.50,222.66,-808.59,3.91,3.29,7.01,-60.73,-166.20,-38.55,-4.35,34.74,118.43,
06/01/2021,01:09:04.51,214.36,-817.38,1.95,5.91,10.00,-54.94,-166.80,-38.55,-4.65,34.31,118.43,
06/01/2021,01:09:04.51,212.89,-840.33,-1.95,4.51,15.30,-47.74,-166.80,-38.55,-4.65,34.64,118.43,
06/01/2021,01:09:04.52,224.61,-830.57,-1.95,6.22,13.66,-41.34,-164.10,-39.45,-4.95,34.74,118.43,
06/01/2021,01:09:04.52,229.00,-846.68,-12.21,5.43,16.77,-36.65,-164.10,-39.45,-4.95,34.64,118.43,
06/01/2021,01:09:04.54,210.45,-875.49,-27.34,0.91,18.05,-20.24,-164.85,-37.95,-5.55,34.69,118.43,
06/01/2021,01:09:04.55,239.26,-893.55,-20.02,1.52,22.20,-11.46,-164.85,-37.95,-5.55,34.36,118.43,
06/01/2021,01:09:04.55,235.84,-919.92,-41.02,-0.85,22.26,-3.72,-165.45,-37.35,-3.60,34.64,118.43,
06/01/2021,01:09:04.56,270.02,-905.76,-50.78,-2.13,19.70,5.18,-163.80,-39.00,-7.05,34.64,118.43,
06/01/2021,01:09:04.56,253.42,-907.23,-43.46,-1.10,21.10,14.02,-163.80,-39.00,-7.05,34.50,118.43,
06/01/2021,01:09:04.58,288.09,-906.25,-75.68,-4.51,21.77,33.11,-164.55,-39.00,-4.20,34.88,118.43,
06/01/2021,01:09:04.59,268.55,-900.88,-99.12,-6.95,23.41,39.76,-164.70,-76.50,-4.20,34.69,118.43,
06/01/2021,01:09:04.59,270.02,-914.06,-86.43,-5.98,21.71,47.44,-164.70,-38.10,-5.10,34.40,118.43,
06/01/2021,01:09:04.60,247.07,-961.91,-84.47,-6.46,26.34,57.07,-164.70,-38.10,-5.10,34.64,118.43,
06/01/2021,01:09:04.60,239.26,-999.02,-81.54,-7.80,29.21,69.21,-164.70,-38.10,-5.10,34.69,118.43,
06/01/2021,01:09:04.61,248.54,-1104.98,-73.73,-9.88,32.38,79.39,-163.20,-38.10,-5.10,34.64,118.43,
06/01/2021,01:09:04.63,309.57,-1210.45,-88.87,-11.22,37.74,110.91,-164.10,-39.00,-5.55,34.64,118.43,
06/01/2021,01:09:04.63,336.43,-1210.45,-98.14,-10.67,36.52,120.79,-164.10,-39.00,-5.55,34.55,118.43,
06/01/2021,01:09:04.64,364.26,-1209.47,-110.35,-13.60,35.06,129.82,-160.95,-40.50,-5.55,34.36,118.43,
06/01/2021,01:09:04.64,382.81,-1166.50,-148.93,-12.50,35.55,133.66,-160.95,-40.50,-5.55,34.64,118.43,
06/01/2021,01:09:04.65,404.30,-1127.44,-172.85,-13.11,34.09,142.74,-162.00,-39.75,-6.00,34.64,118.43,
06/01/2021,01:09:04.69,517.09,-922.85,-365.72,-16.46,1.28,168.72,-161.40,-42.15,-4.05,34.50,118.43,
06/01/2021,01:09:04.71,511.23,-867.68,-391.60,-20.43,-10.49,165.55,-160.35,-44.85,-3.00,34.50,118.43,
06/01/2021,01:09:04.71,503.42,-893.07,-378.91,-20.79,-14.88,166.34,-160.35,-44.85,-3.00,34.64,118.43,
06/01/2021,01:09:04.72,485.84,-919.92,-367.68,-25.79,-12.32,161.83,-157.80,-44.10,-4.65,34.64,118.43,
06/01/2021,01:09:04.73,482.42,-926.76,-368.65,-26.28,-14.76,158.90,-157.80,-44.10,-4.65,34.55,118.43,
06/01/2021,01:09:04.74,422.85,-1009.28,-318.85,-31.22,-5.73,148.84,-157.95,-46.50,-4.50,34.64,118.43,
06/01/2021,01:09:04.75,411.13,-1049.80,-303.71,-31.83,0.24,145.85,-159.60,-46.65,-4.05,34.40,118.43,
06/01/2021,01:09:04.75,402.34,-1078.61,-291.02,-34.51,12.13,139.02,-159.60,-46.65,-4.05,34.64,118.43,
06/01/2021,01:09:04.76,398.44,-1093.75,-273.44,-35.73,20.06,134.02,-159.60,-46.65,-4.05,34.69,118.43,
06/01/2021,01:09:04.77,401.86,-1126.95,-278.81,-37.32,31.10,128.48,-156.00,-46.65,-5.40,34.64,118.43,
06/01/2021,01:09:04.78,416.99,-1175.78,-260.25,-38.90,66.71,110.67,-155.70,-48.15,-6.45,34.50,118.43,
06/01/2021,01:09:04.79,432.62,-1195.31,-252.44,-41.77,80.00,104.76,-155.70,-48.15,-6.45,34.50,118.43,
06/01/2021,01:09:04.79,446.78,-1191.41,-237.79,-39.82,94.76,95.98,-155.70,-48.15,-6.45,34.40,118.43,
06/01/2021,01:09:04.80,457.03,-1186.04,-215.33,-40.30,106.34,88.17,-153.75,-49.50,-5.55,34.64,118.43,
06/01/2021,01:09:04.81,463.38,-1179.69,-199.71,-40.37,114.88,81.89,-154.35,-48.75,-6.60,34.55,118.43,
06/01/2021,01:09:04.82,486.33,-1115.72,-174.32,-40.67,130.00,63.35,-154.35,-48.75,-6.60,34.40,118.43,
06/01/2021,01:09:04.83,482.91,-1096.68,-156.25,-37.80,132.50,54.02,-152.25,-51.00,-3.45,34.74,118.43,
06/01/2021,01:09:04.83,465.82,-1055.18,-142.58,-38.05,136.40,49.51,-152.25,-51.00,-3.45,34.50,118.43,
06/01/2021,01:09:04.84,470.70,-1011.23,-121.09,-37.50,135.18,44.70,-150.75,-48.75,-6.00,34.64,118.43,
06/01/2021,01:09:04.85,474.61,-981.45,-100.10,-39.39,134.02,37.62,-150.75,-48.75,-6.00,34.55,118.43,
06/01/2021,01:09:04.86,472.17,-910.64,-71.78,-34.21,127.74,31.71,-150.60,-51.15,-4.65,34.55,118.43,
06/01/2021,01:09:04.87,483.40,-885.25,-61.04,-34.09,121.89,26.34,-150.60,-51.15,-3.30,34.64,118.43,
06/01/2021,01:09:04.87,486.82,-858.89,-42.97,-33.60,117.68,25.37,-146.85,-50.55,-7.65,34.31,118.43,
06/01/2021,01:09:04.88,488.77,-840.33,-30.27,-33.11,111.77,26.77,-146.85,-50.55,-7.65,34.64,118.43,
06/01/2021,01:09:04.89,473.14,-823.24,-11.72,-32.74,103.11,27.13,-147.60,-50.25,-5.25,34.74,118.43,
06/01/2021,01:09:04.90,459.47,-803.22,10.74,-31.10,81.95,28.78,-147.15,-50.55,-6.00,34.69,118.43,
06/01/2021,01:09:04.91,452.15,-786.13,17.58,-31.65,75.43,27.93,-148.80,-53.40,-4.05,34.55,118.43,
06/01/2021,01:09:04.91,452.64,-767.58,5.37,-28.84,70.00,29.21,-148.80,-53.40,-4.05,34.64,118.43,
06/01/2021,01:09:04.92,443.85,-767.58,19.53,-28.05,63.35,31.28,-145.95,-50.10,-5.70,34.64,118.43,
06/01/2021,01:09:04.92,446.29,-766.11,25.88,-28.90,60.00,32.38,-146.10,-50.25,-7.35,34.88,118.43,
06/01/2021,01:09:04.94,443.85,-766.60,8.79,-25.55,42.87,42.62,-146.70,-50.40,-5.70,34.55,118.43,
06/01/2021,01:09:04.95,430.66,-785.64,10.74,-23.84,35.85,48.84,-146.70,-50.40,-5.70,34.64,118.43,
06/01/2021,01:09:04.95,443.85,-783.69,3.42,-23.78,34.63,49.76,-145.05,-50.25,-7.05,34.64,118.43,
06/01/2021,01:09:04.96,439.45,-781.74,-6.35,-21.10,28.78,57.13,-145.05,-50.25,-7.05,34.83,118.43,
06/01/2021,01:09:04.97,445.80,-773.93,-19.53,-19.09,20.73,58.84,-143.10,-50.10,-8.25,34.55,118.43,
06/01/2021,01:09:04.98,461.91,-780.76,-16.60,-17.56,16.46,67.93,-143.10,-50.10,-8.25,34.31,118.43,
06/01/2021,01:09:04.99,458.98,-800.78,-22.95,-17.74,11.71,68.41,-146.10,-53.55,-3.15,34.74,118.43,
06/01/2021,01:09:04.99,472.17,-789.55,-28.32,-14.15,7.38,71.46,-140.70,-51.00,-7.35,34.50,118.43,
06/01/2021,01:09:05.00,490.72,-805.66,-34.67,-13.48,6.10,72.44,-140.70,-51.00,-7.35,34.40,118.43,
06/01/2021,01:09:05.01,491.70,-814.45,-30.27,-9.82,3.41,73.72,-140.70,-51.00,-7.35,34.69,118.43,
06/01/2021,01:09:05.02,532.23,-831.54,-41.02,-7.20,-7.62,76.52,-140.40,-52.80,-8.10,34.64,118.43,
06/01/2021,01:09:05.03,559.57,-839.36,-32.71,-3.66,-10.91,78.05,-143.70,-53.10,-5.40,34.50,118.43,
06/01/2021,01:09:05.03,559.57,-852.54,-33.20,-2.50,-15.55,75.37,-143.70,-53.10,-5.40,34.64,118.43,
06/01/2021,01:09:05.04,576.17,-864.26,-36.13,-0.12,-19.45,75.98,-143.70,-53.10,-5.40,34.55,118.43,
06/01/2021,01:09:05.04,596.68,-882.32,-48.34,3.90,-25.37,71.52,-140.85,-50.40,-6.45,34.64,118.43,
06/01/2021,01:09:05.06,609.86,-917.48,-67.38,11.95,-34.88,65.30,-142.20,-52.80,-7.65,34.50,118.43,
06/01/2021,01:09:05.07,641.60,-955.57,-74.71,9.88,-33.48,58.90,-142.20,-52.80,-7.65,34.50,118.43,
06/01/2021,01:09:05.07,655.27,-980.96,-75.68,13.05,-37.93,54.09,-142.20,-52.80,-7.65,34.50,118.43,
06/01/2021,01:09:05.08,661.13,-995.61,-78.12,15.67,-37.80,48.72,-142.20,-51.30,-8.10,34.50,118.43,
06/01/2021,01:09:05.08,671.88,-1025.88,-96.19,18.60,-39.51,41.83,-141.45,-52.05,-8.40,34.69,118.43,
06/01/2021,01:09:05.10,682.13,-1065.43,-101.56,24.15,-41.22,25.61,-139.95,-53.25,-6.30,34.64,118.43,
06/01/2021,01:09:05.11,670.41,-1065.92,-108.89,25.00,-39.51,16.16,-142.50,-51.30,-6.00,34.64,118.43,
06/01/2021,01:09:05.11,665.04,-1079.10,-113.77,27.26,-42.80,7.20,-142.50,-51.30,-6.00,34.64,118.43,
06/01/2021,01:09:05.12,663.09,-1070.80,-110.84,30.61,-42.13,0.73,-139.95,-52.80,-7.65,34.69,118.43,
06/01/2021,01:09:05.12,644.04,-1072.75,-126.46,32.32,-40.85,-6.28,-141.30,-50.85,-6.90,34.50,118.43,
06/01/2021,01:09:05.14,598.14,-1107.42,-148.93,38.60,-35.24,-23.29,-141.45,-51.75,-6.60,34.64,118.43,
06/01/2021,01:09:05.15,602.05,-1175.78,-164.06,37.56,-33.96,-26.65,-141.75,-50.55,-5.25,34.55,118.43,
06/01/2021,01:09:05.15,616.21,-1226.07,-173.34,38.90,-30.79,-31.65,-141.75,-50.55,-5.25,34.31,118.43,
06/01/2021,01:09:05.16,633.79,-1277.83,-198.24,38.05,-27.87,-35.55,-141.30,-50.40,-5.10,34.69,118.43,
06/01/2021,01:09:05.16,660.64,-1345.70,-201.66,35.79,-27.26,-39.21,-141.30,-50.40,-5.10,34.40,118.43,
06/01/2021,01:09:05.21,606.93,-1203.12,-116.70,24.02,-32.20,-64.76,-142.65,-50.40,-5.70,34.64,118.43,
06/01/2021,01:09:05.22,589.36,-1199.71,-122.56,22.56,-32.26,-75.18,-144.30,-50.55,-4.95,34.50,118.43,
06/01/2021,01:09:05.23,584.96,-1199.71,-110.35,22.56,-38.05,-80.00,-144.30,-50.55,-4.95,34.64,118.43,
06/01/2021,01:09:05.23,571.78,-1186.04,-100.10,23.11,-44.09,-83.05,-143.40,-51.15,-7.20,34.64,118.43,
06/01/2021,01:09:05.24,570.31,-1178.71,-80.08,22.20,-44.82,-87.13,-143.40,-51.15,-7.20,34.50,118.43,
06/01/2021,01:09:05.25,535.64,-1179.20,-64.94,23.11,-54.27,-98.11,-144.30,-49.80,-6.00,34.40,118.43,
06/01/2021,01:09:05.26,517.58,-1190.43,-71.29,25.06,-62.44,-96.71,-144.30,-49.80,-6.00,34.64,118.43,
06/01/2021,01:09:05.27,517.58,-1191.41,-66.41,23.60,-64.70,-100.18,-146.85,-50.25,-5.25,34.69,118.43,
06/01/2021,01:09:05.27,501.46,-1185.55,-58.59,26.83,-67.44,-103.41,-146.40,-48.30,-4.95,34.69,118.43,
06/01/2021,01:09:05.28,488.77,-1186.04,-60.55,25.73,-71.46,-104.70,-146.40,-48.30,-4.95,34.64,118.43,
06/01/2021,01:09:05.30,457.52,-1158.69,-54.20,26.10,-78.35,-111.10,-148.95,-49.05,-4.50,34.55,118.43,
06/01/2021,01:09:05.30,451.66,-1146.00,-55.18,25.49,-78.84,-115.24,-150.15,-49.50,-4.95,34.64,118.43,
06/01/2021,01:09:05.31,447.27,-1145.51,-58.11,23.66,-80.67,-114.21,-150.15,-49.50,-4.95,34.40,118.43,
06/01/2021,01:09:05.31,443.36,-1144.04,-73.24,23.72,-83.35,-115.49,-148.65,-47.70,-6.30,34.50,118.43,
06/01/2021,01:09:05.32,431.64,-1117.68,-59.08,21.34,-82.26,-119.15,-148.65,-47.70,-6.30,34.50,118.43,
06/01/2021,01:09:05.34,393.07,-1114.26,-48.83,19.39,-80.79,-122.93,-150.75,-47.70,-2.70,34.64,118.43,
06/01/2021,01:09:05.34,383.30,-1102.54,-49.80,18.11,-78.41,-126.10,-154.20,-48.15,-4.35,34.64,118.43,
06/01/2021,01:09:05.35,364.26,-1087.89,-38.09,14.09,-78.41,-127.56,-154.20,-48.15,-4.35,34.50,118.43,
06/01/2021,01:09:05.35,356.45,-1101.07,-20.02,12.93,-74.82,-126.16,-152.55,-46.95,-5.25,34.64,118.43,
06/01/2021,01:09:05.36,361.82,-1088.87,-14.65,12.50,-73.05,-127.56,-152.55,-46.95,-5.25,34.50,118.43,
06/01/2021,01:09:05.38,334.96,-1067.87,5.86,11.10,-71.59,-131.65,-155.85,-49.50,-3.75,34.69,118.43,
06/01/2021,01:09:05.38,317.87,-1056.64,10.74,10.06,-69.39,-131.65,-155.85,-49.50,-3.75,34.55,118.43,
06/01/2021,01:09:05.39,313.96,-1046.88,23.44,9.70,-66.95,-131.65,-155.85,-49.50,-3.75,34.50,118.43,
06/01/2021,01:09:05.39,303.22,-1039.06,3.42,10.06,-67.50,-131.22,-154.20,-47.10,-6.45,34.74,118.43,
06/01/2021,01:09:05.40,292.48,-1037.11,21.48,8.17,-64.82,-132.62,-154.20,-47.10,-6.45,34.74,118.43,
06/01/2021,01:09:05.42,286.62,-1012.21,24.41,6.10,-56.89,-132.44,-156.45,-45.60,-6.45,34.64,118.43,
06/01/2021,01:09:05.42,280.27,-1011.72,34.67,5.55,-53.48,-131.65,-159.30,-45.90,-5.10,34.69,118.43,
06/01/2021,01:09:05.43,259.77,-996.09,38.09,4.45,-53.05,-134.02,-159.30,-45.90,-5.10,34.74,118.43,
06/01/2021,01:09:05.43,258.30,-980.47,30.76,3.29,-45.06,-129.51,-158.40,-44.25,-6.00,34.64,118.43,
06/01/2021,01:09:05.44,245.61,-973.14,29.30,4.57,-42.07,-130.30,-158.40,-44.25,-6.00,34.64,118.43,
06/01/2021,01:09:05.45,246.09,-953.61,31.25,4.45,-33.48,-129.70,-160.20,-44.70,-5.55,34.55,118.43,
06/01/2021,01:09:05.46,246.09,-935.55,38.57,4.15,-29.63,-126.22,-161.10,-45.90,-5.10,34.64,118.43,
06/01/2021,01:09:05.47,247.56,-924.32,40.04,3.78,-24.51,-124.76,-161.10,-45.90,-5.10,34.40,118.43,
06/01/2021,01:09:05.47,246.58,-906.74,48.34,5.43,-21.83,-124.33,-161.10,-45.90,-5.10,34.36,118.43,
06/01/2021,01:09:05.48,227.05,-908.69,40.04,4.70,-20.30,-121.04,-161.10,-45.90,-5.10,34.64,118.43,
06/01/2021,01:09:05.49,233.40,-900.39,59.08,5.37,-16.52,-123.05,-160.95,-42.00,-8.10,34.50,118.43,
06/01/2021,01:09:05.50,220.21,-863.28,62.50,6.04,-10.85,-116.04,-162.60,-41.85,-4.65,34.50,118.43,
06/01/2021,01:09:05.51,232.42,-862.79,55.18,6.52,-8.11,-114.51,-162.60,-41.85,-4.65,34.55,118.43,
06/01/2021,01:09:05.51,231.93,-847.17,71.78,7.50,-7.44,-113.96,-162.15,-41.10,-7.20,34.50,118.43,
06/01/2021,01:09:05.52,219.24,-833.01,58.59,7.01,-7.07,-106.59,-162.15,-41.10,-7.20,34.64,118.43,
06/01/2021,01:09:05.52,232.42,-833.98,69.82,10.24,-3.60,-106.52,-161.70,-40.95,-6.60,34.50,118.43,
06/01/2021,01:09:05.54,228.52,-825.20,76.66,9.70,-5.18,-95.73,-163.65,-40.05,-6.15,34.50,118.43,
06/01/2021,01:09:05.55,213.38,-806.15,58.11,8.48,-5.55,-91.59,-163.65,-40.05,-6.15,34.31,118.43,
06/01/2021,01:09:05.55,219.24,-781.74,55.66,10.18,-8.05,-86.65,-162.60,-40.80,-7.50,34.36,118.43,
06/01/2021,01:09:05.56,225.59,-793.46,54.69,10.06,-7.74,-80.73,-162.60,-40.80,-7.50,34.36,118.43,
06/01/2021,01:09:05.56,212.40,-781.25,49.32,8.66,-5.06,-79.76,-162.90,-39.30,-7.50,34.40,118.43,
06/01/2021,01:09:05.58,207.03,-791.50,48.34,10.67,-5.55,-64.27,-164.40,-39.30,-5.40,34.50,118.43,
06/01/2021,01:09:05.59,197.75,-796.39,42.97,9.33,-6.16,-61.71,-164.40,-39.30,-5.40,34.55,118.43,
06/01/2021,01:09:05.59,199.22,-778.81,38.09,10.98,-4.70,-53.90,-163.50,-37.50,-8.10,34.64,118.43,
06/01/2021,01:09:05.60,208.98,-805.66,32.23,11.22,-7.99,-48.60,-163.50,-37.50,-8.10,34.40,118.43,
06/01/2021,01:09:05.60,214.36,-811.52,21.97,8.84,-5.12,-42.01,-163.50,-37.50,-8.10,34.55,118.43,
06/01/2021,01:09:05.62,214.84,-851.56,-3.91,4.57,-3.17,-21.22,-165.90,-37.50,-3.75,34.50,118.43,
06/01/2021,01:09:05.63,229.00,-859.86,2.44,3.90,-0.12,-10.85,-165.90,-37.50,-3.75,34.64,118.43,
06/01/2021,01:09:05.63,225.10,-871.09,-18.55,4.70,-0.98,-5.73,-165.90,-37.50,-3.75,34.21,118.43,
06/01/2021,01:09:05.64,209.96,-893.07,-21.00,1.83,0.61,3.29,-165.90,-37.50,-3.75,34.50,118.43,
06/01/2021,01:09:05.64,230.47,-883.79,-41.99,0.91,-0.43,11.89,-164.10,-37.20,-6.30,34.36,118.43,
06/01/2021,01:09:05.66,250.00,-900.39,-73.73,-5.30,5.91,31.83,-163.80,-36.75,-7.35,34.74,118.43,
06/01/2021,01:09:05.66,244.14,-886.72,-76.66,-6.10,6.95,36.28,-163.80,-36.75,-7.35,34.64,118.43,
06/01/2021,01:09:05.67,245.12,-907.71,-85.45,-7.87,9.51,44.94,-163.65,-38.85,-7.95,34.50,118.43,
06/01/2021,01:09:05.68,242.19,-931.15,-85.45,-8.72,12.62,54.94,-163.65,-38.85,-7.95,34.50,118.43,
06/01/2021,01:09:05.68,222.17,-966.31,-67.38,-10.49,21.34,61.16,-162.15,-39.30,-6.15,34.40,118.43,
06/01/2021,01:09:05.72,283.69,-1202.15,-67.38,-20.73,52.80,120.18,-164.55,-39.75,-4.20,34.64,118.43,
06/01/2021,01:09:05.74,344.24,-1048.83,-136.72,-16.83,58.90,149.27,-162.00,-41.25,-6.00,34.55,118.43,
06/01/2021,01:09:05.75,348.14,-1023.93,-157.71,-17.80,63.23,156.34,-162.00,-41.25,-6.00,34.64,118.43,
06/01/2021,01:09:05.75,365.23,-983.40,-168.46,-14.94,60.85,159.09,-161.70,-41.70,-7.65,34.55,118.43,
06/01/2021,01:09:05.76,399.90,-960.94,-182.62,-15.37,57.20,163.84,-161.70,-41.70,-7.65,34.69,118.43,
06/01/2021,01:09:05.76,423.83,-957.03,-211.91,-14.39,51.65,166.52,-159.75,-42.00,-7.05,34.69,118.43,
06/01/2021,01:09:05.78,468.26,-939.94,-249.51,-13.35,37.50,171.83,-161.40,-43.35,-4.65,34.40,118.43,
06/01/2021,01:09:05.79,498.05,-937.50,-257.32,-15.30,23.96,175.67,-161.40,-43.35,-4.65,34.50,118.43,
06/01/2021,01:09:05.79,506.35,-965.33,-283.69,-14.94,17.32,173.90,-161.40,-43.35,-4.65,34.69,118.43,
06/01/2021,01:09:05.80,509.28,-986.33,-300.29,-16.95,10.61,176.65,-158.25,-45.15,-5.70,34.93,118.43,
06/01/2021,01:09:05.80,516.11,-1015.14,-312.01,-18.78,4.94,172.99,-158.25,-45.15,-5.70,34.64,118.43,
06/01/2021,01:09:05.82,498.05,-1081.54,-295.41,-24.82,-9.27,166.40,-156.90,-44.70,-6.00,34.74,118.43,
06/01/2021,01:09:05.83,465.33,-1096.19,-263.67,-27.26,-8.17,163.54,-156.90,-44.70,-6.00,34.69,118.43,
06/01/2021,01:09:05.83,454.59,-1110.35,-262.70,-25.73,-7.44,160.55,-156.75,-45.15,-6.15,34.50,118.43,
06/01/2021,01:09:05.84,425.78,-1114.26,-258.79,-27.87,-3.60,156.10,-156.75,-45.90,-7.50,34.64,118.43,
06/01/2021,01:09:05.84,409.67,-1136.23,-246.09,-27.01,3.11,151.46,-156.75,-45.90,-7.50,34.74,118.43,
06/01/2021,01:09:05.86,384.77,-1182.13,-264.65,-27.99,32.07,141.40,-155.85,-49.50,-4.20,34.40,118.43,
06/01/2021,01:09:05.87,403.81,-1205.57,-275.39,-27.13,43.17,133.78,-155.85,-49.50,-4.20,34.64,118.43,
06/01/2021,01:09:05.87,400.88,-1203.12,-288.57,-28.41,56.04,127.38,-154.95,-47.85,-5.70,34.64,118.43,
06/01/2021,01:09:05.88,420.90,-1214.36,-279.79,-28.17,67.68,122.62,-154.95,-47.85,-5.70,34.69,118.43,
06/01/2021,01:09:05.88,426.76,-1197.75,-277.34,-29.27,78.17,114.15,-154.95,-47.85,-5.70,34.64,118.43,
06/01/2021,01:09:05.90,478.03,-1152.83,-235.35,-34.09,105.85,94.76,-150.60,-50.40,-6.15,34.69,118.43,
06/01/2021,01:09:05.91,484.86,-1120.61,-221.68,-30.00,108.54,93.35,-150.60,-50.40,-6.15,34.50,118.43,
06/01/2021,01:09:05.91,481.45,-1087.40,-209.47,-32.20,111.89,87.68,-151.20,-48.75,-5.25,34.64,118.43,
06/01/2021,01:09:05.92,494.63,-1050.29,-187.99,-31.95,113.60,81.34,-150.30,-49.65,-5.40,34.64,118.43,
06/01/2021,01:09:05.92,506.35,-1017.58,-166.50,-31.77,116.46,76.89,-150.30,-49.65,-5.40,34.36,118.43,
06/01/2021,01:09:05.94,520.51,-949.22,-139.16,-31.52,112.87,66.28,-148.65,-50.55,-5.25,34.74,118.43,
06/01/2021,01:09:05.95,511.23,-921.39,-125.49,-33.60,106.59,63.78,-148.65,-50.55,-5.25,34.55,118.43,
06/01/2021,01:09:05.95,516.11,-927.25,-114.75,-33.78,102.62,63.60,-147.90,-49.80,-6.30,34.55,118.43,
06/01/2021,01:09:05.96,514.65,-893.55,-102.54,-31.59,99.39,60.12,-148.20,-50.25,-8.10,34.64,118.43,
06/01/2021,01:09:05.96,511.72,-890.62,-87.89,-31.89,90.79,63.60,-148.20,-50.25,-8.10,34.64,118.43,
06/01/2021,01:09:05.98,506.84,-865.23,-74.71,-33.11,78.05,58.35,-146.25,-50.40,-7.50,34.69,118.43,
06/01/2021,01:09:05.99,487.79,-856.45,-62.01,-33.05,75.18,58.29,-146.25,-50.40,-7.50,34.55,118.43,
06/01/2021,01:09:05.99,487.79,-838.38,-66.41,-33.78,65.61,58.96,-145.05,-51.00,-7.65,34.36,118.43,
06/01/2021,01:09:06.00,495.12,-849.12,-60.55,-34.76,59.39,59.51,-143.70,-52.35,-7.50,34.74,118.43,
06/01/2021,01:09:06.00,492.68,-865.72,-54.20,-32.38,59.63,60.30,-143.70,-52.35,-7.50,34.50,118.43,
06/01/2021,01:09:06.02,491.70,-865.23,-47.85,-29.57,44.33,64.15,-144.60,-51.75,-6.00,34.40,118.43,
06/01/2021,01:09:06.03,515.14,-871.58,-50.29,-29.57,40.55,65.73,-144.45,-51.75,-6.00,34.40,118.43,
06/01/2021,01:09:06.03,504.39,-874.51,-67.87,-27.62,36.28,66.52,-144.45,-52.35,-7.50,34.64,118.43,
06/01/2021,01:09:06.04,520.51,-883.79,-64.45,-30.06,33.66,70.00,-144.45,-52.35,-7.50,34.50,118.43,
06/01/2021,01:09:06.04,528.81,-889.65,-78.12,-28.35,28.90,67.93,-144.45,-52.35,-7.50,34.64,118.43,
06/01/2021,01:09:06.06,546.39,-883.30,-86.91,-26.28,17.44,70.79,-141.90,-52.35,-7.50,34.64,118.43,
06/01/2021,01:09:06.07,562.99,-877.44,-94.73,-24.21,14.63,71.40,-141.90,-52.35,-7.50,34.50,118.43,
06/01/2021,01:09:06.07,562.99,-876.46,-97.66,-23.54,11.22,72.68,-141.90,-52.35,-7.50,34.74,118.43,
06/01/2021,01:09:06.08,585.94,-883.79,-88.38,-21.95,7.44,70.37,-139.50,-51.60,-9.30,34.64,118.43,
06/01/2021,01:09:06.08,603.52,-878.42,-99.12,-20.43,4.33,69.39,-139.50,-51.60,-9.30,34.64,118.43,
06/01/2021,01:09:06.10,626.46,-873.05,-86.91,-15.30,-3.66,61.71,-140.85,-53.10,-7.50,34.64,118.43,
06/01/2021,01:09:06.11,630.37,-866.21,-102.05,-12.20,-4.39,58.78,-140.85,-53.10,-7.50,34.50,118.43,
06/01/2021,01:09:06.11,626.95,-863.28,-113.28,-9.70,-12.44,57.99,-141.00,-52.05,-8.40,34.69,118.43,
06/01/2021,01:09:06.12,643.07,-869.14,-111.33,-6.40,-15.85,51.83,-139.50,-51.90,-9.30,34.40,118.43,
06/01/2021,01:09:06.12,649.41,-856.45,-109.38,-5.73,-16.34,44.45,-139.50,-51.90,-9.30,34.31,118.43,
06/01/2021,01:09:06.14,657.71,-874.51,-124.51,0.00,-23.41,33.78,-139.65,-52.05,-8.10,34.69,118.43,
06/01/2021,01:09:06.15,659.67,-902.83,-136.23,2.50,-26.04,27.87,-139.65,-52.05,-8.10,34.55,118.43,
06/01/2021,01:09:06.15,658.69,-902.83,-130.86,4.15,-24.82,22.07,-139.95,-53.25,-8.40,34.50,118.43,
06/01/2021,01:09:06.16,653.81,-918.95,-147.95,4.51,-32.62,17.01,-138.60,-52.05,-8.10,34.74,118.43,
06/01/2021,01:09:06.16,661.62,-946.29,-135.25,7.32,-35.73,13.23,-138.60,-52.05,-8.10,34.64,118.43,
06/01/2021,01:09:06.18,651.86,-984.86,-149.90,12.50,-33.78,-2.74,-139.95,-53.55,-8.10,34.83,118.43,
06/01/2021,01:09:06.18,647.95,-995.61,-145.51,12.13,-29.94,-5.49,-139.65,-53.55,-8.10,34.40,118.43,
06/01/2021,01:09:06.19,640.62,-978.03,-141.11,13.35,-29.76,-13.17,-139.65,-52.05,-8.10,34.69,118.43,
06/01/2021,01:09:06.24,618.65,-1159.67,-126.46,25.43,-23.11,-43.23,-140.85,-51.90,-6.45,34.40,118.43,
06/01/2021,01:09:06.26,709.47,-1349.12,-117.19,22.01,-30.79,-46.71,-141.30,-51.60,-7.20,34.64,118.43,
06/01/2021,01:09:06.27,703.12,-1350.10,-84.96,17.44,-44.27,-54.33,-142.65,-51.60,-7.50,34.40,118.43,
06/01/2021,01:09:06.28,661.62,-1324.71,-61.04,15.67,-45.67,-58.23,-144.15,-52.35,-5.10,34.69,118.43,
06/01/2021,01:09:06.29,630.86,-1268.07,-66.89,17.20,-51.40,-60.24,-144.15,-52.35,-5.10,34.74,118.43,
06/01/2021,01:09:06.29,607.91,-1254.39,-53.22,16.52,-51.22,-68.54,-144.15,-52.35,-5.10,34.64,118.43,
06/01/2021,01:09:06.30,581.54,-1249.02,-61.52,19.09,-47.99,-74.15,-141.60,-52.35,-6.45,34.40,118.43,
06/01/2021,01:09:06.31,545.90,-1210.94,-54.69,18.41,-46.77,-90.43,-142.65,-51.15,-7.20,34.74,118.43,
06/01/2021,01:09:06.32,538.09,-1197.75,-44.92,20.85,-47.93,-95.98,-142.65,-51.15,-7.20,34.64,118.43,
06/01/2021,01:09:06.33,514.65,-1168.95,-22.95,21.71,-46.83,-101.22,-142.80,-51.30,-8.10,34.74,118.43,
06/01/2021,01:09:06.33,506.84,-1181.15,-34.18,26.40,-44.39,-106.52,-142.80,-51.30,-8.10,34.50,118.43,
06/01/2021,01:09:06.34,509.28,-1178.22,-31.74,28.17,-46.10,-110.43,-144.60,-51.75,-7.05,34.50,118.43,
06/01/2021,01:09:06.35,501.46,-1209.96,-23.44,28.96,-49.94,-124.15,-144.30,-49.80,-7.05,34.74,118.43,
06/01/2021,01:09:06.36,472.66,-1209.96,-26.37,29.94,-50.61,-124.70,-145.80,-51.30,-5.25,34.69,118.43,
06/01/2021,01:09:06.37,472.17,-1189.94,-7.81,32.80,-54.27,-128.48,-145.80,-50.25,-8.10,34.50,118.43,
06/01/2021,01:09:06.37,453.12,-1200.20,-13.18,30.98,-58.23,-132.44,-145.80,-50.25,-8.10,34.69,118.43,
06/01/2021,01:09:06.38,444.82,-1206.54,-9.28,31.65,-58.72,-134.02,-146.85,-49.05,-6.60,34.50,118.43,
06/01/2021,01:09:06.39,414.06,-1192.87,-24.90,33.72,-63.48,-134.02,-149.70,-51.00,-7.05,34.64,118.43,
06/01/2021,01:09:06.40,425.29,-1201.66,-8.30,32.20,-65.43,-136.59,-149.70,-51.00,-7.05,34.69,118.43,
06/01/2021,01:09:06.41,411.62,-1193.36,-7.81,31.89,-64.63,-136.83,-148.80,-50.10,-7.50,34.50,118.43,
06/01/2021,01:09:06.41,393.07,-1188.48,-10.74,30.98,-64.51,-140.85,-148.80,-50.10,-7.50,34.50,118.43,
06/01/2021,01:09:06.42,389.16,-1180.66,-14.65,31.04,-66.04,-140.30,-148.80,-50.10,-7.50,34.50,118.43,
06/01/2021,01:09:06.43,366.70,-1157.23,0.00,27.44,-60.91,-142.56,-152.40,-48.60,-5.70,34.50,118.43,
06/01/2021,01:09:06.44,332.03,-1145.02,20.02,27.26,-62.80,-142.38,-152.40,-48.60,-5.70,34.55,118.43,
06/01/2021,01:09:06.45,333.01,-1148.44,20.51,29.02,-58.29,-144.45,-152.40,-48.60,-5.70,34.50,118.43,
06/01/2021,01:09:06.45,324.71,-1131.35,26.37,27.62,-57.38,-144.94,-152.40,-48.60,-5.70,34.50,118.43,
06/01/2021,01:09:06.46,322.75,-1125.98,23.44,29.27,-58.05,-146.52,-154.05,-47.25,-7.05,34.69,118.43,
06/01/2021,01:09:06.47,310.06,-1089.84,60.06,27.80,-53.78,-145.43,-154.20,-47.10,-9.00,34.64,118.43,
06/01/2021,01:09:06.48,289.06,-1083.50,59.57,28.96,-56.34,-145.98,-154.20,-47.10,-9.00,34.50,118.43,
06/01/2021,01:09:06.49,298.83,-1069.82,44.92,31.83,-53.23,-144.70,-157.35,-45.45,-8.40,34.64,118.43,
06/01/2021,01:09:06.49,279.30,-1054.69,54.69,30.12,-52.32,-143.66,-157.35,-45.45,-8.40,34.55,118.43,
06/01/2021,01:09:06.50,259.28,-1042.97,44.92,31.77,-49.15,-147.56,-157.35,-45.00,-6.00,34.31,118.43,
06/01/2021,01:09:06.51,271.97,-1014.16,50.29,30.85,-47.07,-142.68,-159.45,-45.00,-5.55,34.64,118.43,
06/01/2021,01:09:06.52,257.32,-1007.32,34.67,34.21,-43.48,-142.13,-159.45,-45.00,-5.55,34.74,118.43,
06/01/2021,01:09:06.53,255.86,-994.14,23.44,32.44,-42.32,-140.37,-159.30,-44.10,-6.90,34.83,118.43,
06/01/2021,01:09:06.53,243.16,-979.00,19.53,33.84,-40.73,-141.28,-158.85,-41.85,-6.90,34.64,118.43,
06/01/2021,01:09:06.54,234.38,-974.12,18.07,31.77,-34.76,-137.20,-158.85,-41.85,-5.70,34.50,118.43,
06/01/2021,01:09:06.55,242.68,-938.96,26.37,31.22,-28.11,-132.87,-161.70,-42.45,-5.55,34.40,118.43,
06/01/2021,01:09:06.56,228.52,-928.22,36.62,30.55,-29.21,-132.07,-161.70,-42.45,-5.55,34.50,118.43,
06/01/2021,01:09:06.57,237.30,-911.62,28.81,31.34,-25.24,-130.43,-160.65,-41.10,-6.90,34.64,118.43,
06/01/2021,01:09:06.57,215.33,-911.62,26.86,33.54,-23.60,-127.26,-160.65,-41.10,-6.90,34.69,118.43,
06/01/2021,01:09:06.58,234.38,-889.65,36.13,32.56,-23.60,-125.00,-160.50,-40.95,-6.30,34.64,118.43,
06/01/2021,01:09:06.59,228.03,-859.38,27.83,30.98,-19.09,-118.35,-164.10,-39.75,-6.30,34.64,118.43,
06/01/2021,01:09:06.60,221.19,-865.72,17.09,29.76,-16.40,-114.57,-164.10,-39.75,-6.30,34.36,118.43,
06/01/2021,01:09:06.61,238.77,-840.33,26.86,32.07,-16.34,-110.55,-164.10,-39.75,-6.30,34.55,118.43,
06/01/2021,01:09:06.61,228.03,-831.05,19.04,30.37,-13.23,-108.48,-162.15,-38.85,-7.50,34.40,118.43,
06/01/2021,01:09:06.62,209.96,-836.43,11.23,25.91,-16.16,-104.02,-162.15,-38.85,-7.50,34.64,118.43,
06/01/2021,01:09:06.63,229.00,-810.06,1.95,26.83,-14.45,-97.26,-162.30,-38.25,-7.35,34.64,118.43,
06/01/2021,01:09:06.64,229.00,-788.09,1.95,26.40,-16.34,-91.22,-162.30,-38.25,-7.35,34.55,118.43,
06/01/2021,01:09:06.65,206.54,-770.02,-14.65,27.56,-12.07,-86.10,-163.50,-37.20,-6.30,34.50,118.43,
06/01/2021,01:09:06.65,212.89,-787.60,-1.46,24.39,-11.28,-80.37,-162.30,-36.00,-7.05,34.50,118.43,
06/01/2021,01:09:06.66,212.89,-787.11,-8.30,22.68,-11.71,-79.70,-162.30,-36.00,-7.05,34.69,118.43,
06/01/2021,01:09:06.66,215.82,-799.80,-13.18,22.99,-10.43,-73.11,-162.30,-36.00,-7.05,34.55,118.43,
06/01/2021,01:09:06.69,200.68,-792.48,-36.62,16.71,-4.15,-46.95,-165.60,-36.45,-2.70,34.64,118.43,
06/01/2021,01:09:06.70,216.31,-811.04,-53.22,18.17,-2.87,-39.09,-165.60,-36.45,-2.70,34.55,118.43,
06/01/2021,01:09:06.73,226.56,-830.57,-96.68,10.12,4.15,1.28,-165.30,-35.40,-3.75,34.50,118.43,
06/01/2021,01:09:06.75,241.70,-840.82,-142.09,4.63,5.18,23.66,-163.95,-35.10,-4.65,34.64,118.43,
06/01/2021,01:09:06.75,231.93,-850.10,-166.99,2.01,3.66,29.94,-164.10,-33.90,-4.95,34.55,118.43,
06/01/2021,01:09:06.77,239.26,-892.58,-156.74,-3.29,10.67,58.54,-162.60,-34.35,-5.10,34.64,118.43,
06/01/2021,01:09:06.78,232.91,-949.71,-152.34,-7.68,12.93,68.90,-166.80,-36.60,-3.60,34.50,118.43,
06/01/2021,01:09:06.78,228.03,-990.72,-170.90,-9.02,15.06,80.37,-163.20,-33.30,-6.90,34.64,118.43,
06/01/2021,01:09:06.79,238.28,-1041.02,-151.37,-9.82,19.63,94.94,-163.20,-33.30,-6.90,34.50,118.43,
06/01/2021,01:09:06.79,246.09,-1085.45,-149.90,-12.56,21.16,110.18,-163.20,-33.30,-6.90,34.55,118.43,
06/01/2021,01:09:06.81,299.32,-1110.84,-162.60,-14.51,27.32,141.95,-163.65,-35.10,-6.15,34.64,118.43,
06/01/2021,01:09:06.82,318.36,-1080.57,-182.62,-15.61,28.54,152.07,-164.55,-38.25,-3.45,34.93,118.43,
06/01/2021,01:09:06.82,325.68,-1079.59,-196.78,-16.22,29.33,166.34,-164.55,-38.25,-3.45,34.74,118.43,
06/01/2021,01:09:06.83,342.77,-1072.75,-224.12,-16.95,27.68,173.48,-164.55,-38.25,-3.45,34.83,118.43,
06/01/2021,01:09:06.83,354.49,-1058.11,-244.14,-15.73,28.60,180.55,-161.10,-37.80,-6.15,34.40,118.43,
06/01/2021,01:09:06.85,400.88,-1059.57,-317.87,-16.71,23.72,203.90,-162.00,-37.50,-6.00,34.64,118.43,
06/01/2021,01:09:06.86,435.55,-1057.62,-344.24,-18.90,21.46,208.60,-162.00,-37.50,-6.00,34.64,118.43,
06/01/2021,01:09:06.86,457.03,-1041.02,-360.35,-20.30,16.10,214.57,-160.65,-40.05,-6.45,34.31,118.43,
06/01/2021,01:09:06.87,492.68,-1033.69,-387.21,-22.01,8.78,216.46,-160.65,-40.05,-6.45,34.36,118.43,
06/01/2021,01:09:06.87,510.74,-1034.67,-412.11,-25.30,6.95,218.72,-160.95,-42.00,-7.35,34.40,118.43,
06/01/2021,01:09:06.89,517.09,-1071.78,-445.80,-32.20,-5.55,218.66,-160.95,-42.00,-7.35,34.69,118.43,
06/01/2021,01:09:06.90,517.58,-1096.68,-443.36,-37.20,-5.85,220.06,-160.50,-44.70,-4.50,34.55,118.43,
06/01/2021,01:09:06.90,498.05,-1102.05,-424.80,-40.73,-8.17,215.91,-158.55,-43.65,-6.90,34.69,118.43,
06/01/2021,01:09:06.91,479.00,-1157.23,-396.48,-39.70,-3.11,212.68,-158.55,-43.65,-6.90,34.64,118.43,
06/01/2021,01:09:06.91,459.96,-1169.43,-384.77,-43.48,3.41,206.83,-158.55,-43.65,-6.90,34.50,118.43,
06/01/2021,01:09:06.93,439.45,-1241.21,-303.22,-48.84,22.74,194.76,-157.35,-44.70,-7.05,34.50,118.43,
06/01/2021,01:09:06.94,448.73,-1257.32,-277.83,-49.27,31.16,185.18,-158.25,-45.90,-5.10,34.74,118.43,
06/01/2021,01:09:06.94,447.75,-1281.25,-259.28,-50.79,47.87,176.65,-156.15,-46.20,-7.65,34.55,118.43,
06/01/2021,01:09:06.95,460.94,-1294.92,-247.56,-51.71,54.63,167.99,-156.15,-46.20,-7.65,34.31,118.43,
06/01/2021,01:09:06.95,486.82,-1289.06,-241.21,-51.28,67.44,156.28,-154.80,-45.75,-7.35,34.69,118.43,
06/01/2021,01:09:06.97,564.45,-1305.66,-226.07,-50.24,95.73,123.11,-154.65,-48.90,-6.45,34.55,118.43,
06/01/2021,01:09:06.98,558.59,-1290.04,-238.28,-48.72,103.66,108.84,-154.65,-48.90,-6.45,34.55,118.43,
06/01/2021,01:09:06.98,579.10,-1269.53,-225.59,-49.33,112.44,94.15,-152.25,-47.70,-8.40,34.50,118.43,
06/01/2021,01:09:06.99,569.34,-1254.39,-205.08,-48.29,119.94,78.78,-152.25,-47.70,-8.40,34.40,118.43,
06/01/2021,01:09:06.99,545.90,-1232.42,-202.15,-45.55,120.30,72.50,-151.65,-47.85,-7.95,34.50,118.43,
06/01/2021,01:09:07.01,492.19,-1134.77,-196.78,-46.89,129.70,45.12,-149.70,-48.30,-7.65,34.50,118.43,
06/01/2021,01:09:07.02,478.52,-1083.01,-182.13,-45.67,130.30,34.63,-149.70,-48.30,-7.65,34.55,118.43,
06/01/2021,01:09:07.02,458.01,-1039.55,-154.79,-45.79,135.24,28.35,-150.75,-48.75,-8.40,34.16,118.43,
06/01/2021,01:09:07.03,448.73,-1003.91,-150.88,-47.56,139.82,22.87,-150.75,-48.75,-8.40,34.64,118.43,
06/01/2021,01:09:07.03,440.43,-963.87,-126.46,-45.73,140.61,20.43,-149.70,-48.75,-7.35,34.40,118.43,
06/01/2021,01:09:07.05,445.31,-892.09,-81.54,-47.20,150.85,11.22,-148.80,-51.60,-6.45,34.64,118.43,
06/01/2021,01:09:07.06,431.15,-868.16,-68.36,-49.21,150.24,8.78,-148.80,-51.60,-6.45,34.50,118.43,
06/01/2021,01:09:07.06,442.87,-845.70,-47.36,-48.48,147.56,7.68,-147.60,-50.25,-8.10,34.69,118.43,
06/01/2021,01:09:07.07,435.55,-840.82,-37.60,-48.72,147.01,6.46,-147.60,-50.25,-8.10,34.64,118.43,
06/01/2021,01:09:07.07,427.73,-823.73,-14.16,-47.50,149.21,9.21,-147.60,-50.25,-8.10,34.64,118.43,
06/01/2021,01:09:07.09,427.73,-783.69,20.02,-49.63,140.37,12.13,-146.25,-52.35,-7.20,34.64,118.43,
06/01/2021,01:09:07.10,412.60,-767.09,32.23,-47.62,131.16,14.63,-146.25,-52.35,-7.20,34.83,118.43,
06/01/2021,01:09:07.10,415.04,-753.91,42.48,-46.77,122.07,18.11,-146.25,-52.35,-7.20,34.55,118.43,
06/01/2021,01:09:07.11,417.48,-767.09,52.73,-48.96,117.62,17.74,-146.25,-52.35,-7.20,34.64,118.43,
06/01/2021,01:09:07.11,405.76,-768.07,47.36,-46.95,110.85,24.27,-144.00,-52.05,-8.40,34.64,118.43,
06/01/2021,01:09:07.13,420.90,-743.65,53.22,-47.62,96.77,36.40,-144.00,-53.25,-7.05,34.50,118.43,
06/01/2021,01:09:07.14,422.85,-756.84,46.88,-45.12,86.28,41.59,-144.00,-53.25,-7.05,34.64,118.43,
06/01/2021,01:09:07.14,425.78,-747.56,47.85,-43.29,81.22,49.39,-143.70,-52.35,-10.65,34.69,118.43,
06/01/2021,01:09:07.15,446.78,-750.49,37.60,-43.11,78.96,51.89,-143.70,-52.35,-10.65,34.64,118.43,
06/01/2021,01:09:07.15,445.31,-746.09,33.69,-43.11,72.80,56.95,-141.90,-51.60,-10.05,34.74,118.43,
06/01/2021,01:09:07.17,452.15,-746.58,35.16,-39.57,56.59,69.82,-141.75,-52.50,-8.10,34.64,118.43,
06/01/2021,01:09:07.18,448.73,-760.74,47.36,-37.62,50.91,70.55,-141.75,-52.50,-8.10,34.69,118.43,
06/01/2021,01:09:07.18,464.84,-759.77,39.06,-34.39,45.12,78.29,-141.00,-52.50,-10.50,34.83,118.43,
06/01/2021,01:09:07.19,469.73,-763.18,33.20,-31.89,40.73,80.12,-141.00,-52.50,-10.50,34.74,118.43,
06/01/2021,01:09:07.19,483.40,-770.51,33.69,-29.33,33.41,82.32,-140.55,-51.60,-10.65,34.64,118.43,
06/01/2021,01:09:07.21,556.15,-801.27,42.48,-20.85,18.84,86.71,-139.95,-52.80,-9.45,34.50,118.43,
06/01/2021,01:09:07.24,638.18,-898.93,20.51,-1.28,-21.04,76.71,-139.50,-54.45,-8.55,34.55,118.43,
06/01/2021,01:09:07.26,680.66,-965.33,1.46,11.34,-30.85,63.23,-139.80,-51.90,-10.65,34.50,118.43,
06/01/2021,01:09:07.26,704.10,-981.45,-0.49,15.24,-36.10,53.54,-139.80,-51.90,-10.65,34.50,118.43,
06/01/2021,01:09:07.27,715.33,-1002.44,4.88,15.85,-39.94,47.50,-136.65,-54.00,-10.95,34.64,118.43,
06/01/2021,01:09:07.28,697.75,-1022.46,-22.95,27.74,-44.51,26.40,-137.10,-52.05,-9.45,34.64,118.43,
06/01/2021,01:09:07.29,679.69,-1008.79,-45.90,32.62,-49.45,15.37,-137.10,-52.05,-9.45,34.64,118.43,
06/01/2021,01:09:07.30,658.20,-1004.39,-56.64,36.77,-53.11,8.60,-137.10,-52.05,-9.45,34.64,118.43,
06/01/2021,01:09:07.30,630.37,-996.58,-70.31,38.29,-52.07,2.13,-137.55,-51.60,-9.00,34.74,118.43,
06/01/2021,01:09:07.31,597.17,-1027.34,-89.84,41.52,-48.48,-3.29,-137.10,-51.75,-10.95,34.64,118.43,
06/01/2021,01:09:07.32,588.38,-1157.23,-156.25,48.41,-38.48,-19.82,-137.10,-51.75,-10.95,34.40,118.43,
06/01/2021,01:09:07.33,611.82,-1245.12,-172.36,48.05,-33.90,-23.60,-139.65,-52.50,-7.05,34.50,118.43,
06/01/2021,01:09:07.34,639.16,-1331.05,-175.29,48.35,-32.80,-25.00,-139.65,-52.50,-7.05,34.69,118.43,
06/01/2021,01:09:07.34,678.22,-1385.25,-163.09,44.63,-28.29,-30.00,-136.95,-50.85,-9.60,34.50,118.43,
06/01/2021,01:09:07.35,692.38,-1406.74,-158.20,42.56,-23.17,-34.09,-138.30,-51.60,-7.95,34.55,118.43,
06/01/2021,01:09:07.36,681.64,-1309.08,-129.88,36.83,-22.07,-45.73,-138.00,-49.65,-8.55,34.21,118.43,
06/01/2021,01:09:07.37,668.95,-1260.25,-128.42,35.61,-20.06,-51.04,-141.45,-51.75,-6.30,34.40,118.43,
06/01/2021,01:09:07.38,635.25,-1216.31,-120.12,37.38,-17.32,-55.43,-141.45,-51.75,-6.30,34.50,118.43,
06/01/2021,01:09:07.38,621.58,-1190.92,-126.46,37.99,-16.52,-62.99,-139.80,-51.90,-7.95,34.50,118.43,
06/01/2021,01:09:07.39,592.77,-1170.90,-123.54,37.13,-13.72,-68.54,-137.55,-50.85,-7.20,34.69,118.43,
06/01/2021,01:09:07.41,569.34,-1133.30,-127.93,39.82,-18.96,-86.89,-139.50,-50.85,-7.50,34.69,118.43,
06/01/2021,01:09:07.41,562.50,-1134.77,-125.49,40.49,-16.28,-94.51,-144.00,-52.05,-4.20,34.50,118.43,
06/01/2021,01:09:07.42,554.20,-1116.70,-123.05,44.51,-19.27,-97.74,-144.00,-52.05,-4.20,34.50,118.43,
06/01/2021,01:09:07.42,536.62,-1136.72,-125.98,45.18,-21.59,-102.56,-144.00,-52.05,-4.20,34.64,118.43,
06/01/2021,01:09:07.43,544.43,-1159.18,-129.88,43.90,-25.49,-104.82,-142.35,-51.15,-8.25,34.64,118.43,
06/01/2021,01:09:07.45,533.69,-1174.80,-120.61,45.49,-40.55,-115.43,-142.50,-50.25,-7.35,34.74,118.43,
06/01/2021,01:09:07.45,523.44,-1167.97,-121.09,46.52,-47.50,-115.98,-142.50,-50.25,-7.35,34.64,118.43,
06/01/2021,01:09:07.46,501.46,-1169.92,-118.65,48.17,-50.06,-116.83,-143.70,-49.65,-7.20,34.64,118.43,
06/01/2021,01:09:07.46,475.59,-1166.50,-128.91,48.84,-58.84,-120.98,-143.70,-49.65,-7.20,34.64,118.43,
06/01/2021,01:09:07.47,474.12,-1163.57,-118.16,45.43,-61.71,-122.44,-144.00,-49.50,-6.60,34.50,118.43,
06/01/2021,01:09:07.49,438.96,-1175.29,-102.05,42.13,-67.93,-124.45,-144.00,-49.50,-6.60,34.50,118.43,
06/01/2021,01:09:07.49,450.68,-1172.36,-106.45,42.80,-70.12,-125.37,-147.15,-52.05,-4.95,34.40,118.43,
06/01/2021,01:09:07.50,414.06,-1164.06,-111.33,36.34,-73.17,-125.37,-145.50,-50.85,-6.15,34.69,118.43,
06/01/2021,01:09:07.50,373.05,-1169.92,-99.61,36.65,-74.09,-123.29,-145.50,-50.85,-6.15,34.69,118.43,
06/01/2021,01:09:07.51,385.74,-1165.04,-112.30,36.40,-74.70,-124.76,-145.50,-50.85,-6.15,34.64,118.43,
06/01/2021,01:09:07.53,358.89,-1166.99,-96.68,32.50,-71.83,-126.59,-147.75,-48.90,-5.10,34.50,118.43,
06/01/2021,01:09:07.53,351.56,-1153.32,-79.10,31.04,-70.73,-126.10,-148.80,-50.40,-3.30,34.55,118.43,
06/01/2021,01:09:07.54,353.03,-1141.60,-82.52,30.49,-70.24,-125.61,-148.80,-50.40,-3.30,34.69,118.43,
06/01/2021,01:09:07.54,353.03,-1134.28,-86.91,27.99,-68.29,-125.61,-148.80,-50.40,-3.30,34.55,118.43,
06/01/2021,01:09:07.55,329.10,-1124.51,-77.15,25.79,-70.98,-127.99,-147.75,-48.60,-5.10,34.69,118.43,
06/01/2021,01:09:07.57,303.22,-1077.64,-93.75,20.18,-60.00,-129.70,-148.50,-50.40,-3.00,34.64,118.43,
06/01/2021,01:09:07.57,284.18,-1054.20,-73.24,18.96,-63.11,-127.74,-148.50,-50.40,-3.00,34.69,118.43,
06/01/2021,01:09:07.58,279.79,-1044.92,-73.73,17.13,-57.93,-128.66,-149.85,-45.90,-4.35,34.40,118.43,
06/01/2021,01:09:07.58,269.04,-1022.46,-64.94,18.11,-52.68,-129.45,-149.85,-45.90,-4.35,34.55,118.43,
06/01/2021,01:09:07.59,251.46,-1004.88,-72.75,16.22,-47.32,-132.01,-148.65,-45.75,-2.70,34.64,118.43,
06/01/2021,01:09:07.61,254.88,-960.94,-61.52,12.80,-34.33,-128.17,-151.20,-45.45,-3.45,34.64,118.43,
06/01/2021,01:09:07.61,230.96,-936.04,-58.11,13.17,-30.67,-130.24,-151.05,-46.65,-3.00,34.64,118.43,
06/01/2021,01:09:07.62,225.10,-943.36,-51.27,10.37,-26.34,-128.54,-150.15,-43.95,-2.10,34.64,118.43,
06/01/2021,01:09:07.62,258.30,-916.99,-56.15,9.21,-21.28,-128.41,-150.15,-43.95,-2.10,34.55,118.43,
06/01/2021,01:09:07.63,238.28,-908.20,-49.32,8.72,-19.63,-125.49,-150.60,-45.60,-3.00,34.40,118.43,
06/01/2021,01:09:07.65,238.28,-892.58,-32.23,7.32,-11.04,-123.41,-150.60,-45.60,-3.00,34.40,118.43,
06/01/2021,01:09:07.65,241.70,-881.35,-42.48,5.12,-12.32,-116.89,-152.40,-43.65,-0.45,34.50,118.43,
06/01/2021,01:09:07.66,242.68,-875.98,-36.13,4.45,-11.34,-115.49,-152.85,-41.85,-1.80,34.40,118.43,
06/01/2021,01:09:07.66,256.84,-860.35,-27.34,5.06,-11.16,-112.62,-152.85,-41.85,-1.80,34.64,118.43,
06/01/2021,01:09:07.67,248.54,-855.47,-22.46,3.05,-10.43,-110.55,-152.85,-41.85,-1.80,34.40,118.43,
06/01/2021,01:09:07.69,228.52,-831.05,-23.93,-1.10,-10.37,-100.30,-152.85,-40.35,0.45,34.64,118.43,
06/01/2021,01:09:07.69,234.38,-808.59,-21.00,-0.55,-7.74,-97.74,-153.75,-41.70,1.05,34.64,118.43,
06/01/2021,01:09:07.70,225.59,-813.48,-22.46,-2.26,-6.52,-91.77,-153.75,-41.70,1.05,34.74,118.43,
06/01/2021,01:09:07.70,218.26,-791.02,-26.86,-5.12,-6.40,-89.15,-153.75,-41.70,1.05,34.40,118.43,
06/01/2021,01:09:07.71,214.36,-798.34,-33.20,-4.70,-5.67,-84.15,-153.15,-38.85,-0.45,34.64,118.43,
06/01/2021,01:09:07.75,207.03,-771.00,-22.46,-17.01,7.80,-46.34,-154.35,-38.25,2.40,34.40,118.43,
06/01/2021,01:09:07.77,206.54,-775.88,-19.04,-16.65,10.91,-34.39,-153.90,-37.80,3.60,34.50,118.43,
06/01/2021,01:09:07.77,199.71,-786.62,-9.28,-19.39,13.35,-26.22,-153.90,-37.80,3.60,34.50,118.43,
06/01/2021,01:09:07.78,212.40,-787.60,-19.53,-20.37,19.09,-21.77,-152.55,-36.45,0.60,34.55,118.43,
06/01/2021,01:09:07.78,209.96,-809.08,-16.60,-18.35,19.63,-14.88,-153.00,-36.00,2.70,34.69,118.43,
06/01/2021,01:09:07.80,209.96,-844.24,-25.39,-24.94,23.78,1.16,-153.75,-38.25,3.45,34.74,118.43,
06/01/2021,01:09:07.81,231.93,-853.52,-18.55,-24.82,26.04,13.23,-152.85,-36.60,2.55,34.36,118.43,
06/01/2021,01:09:07.81,228.03,-877.44,-24.90,-26.89,26.52,20.06,-152.85,-36.60,2.55,34.69,118.43,
06/01/2021,01:09:07.82,237.79,-897.95,-15.62,-27.07,28.84,27.20,-153.00,-37.95,1.35,34.40,118.43,
06/01/2021,01:09:07.82,249.51,-916.99,-42.97,-30.18,27.87,37.74,-153.00,-37.95,1.35,34.64,118.43,
06/01/2021,01:09:07.83,259.77,-921.39,-39.06,-30.37,28.29,44.51,-152.10,-35.55,2.55,34.55,118.43,
06/01/2021,01:09:07.85,251.46,-977.05,-41.99,-32.07,33.29,67.68,-153.90,-38.85,4.05,34.55,118.43,
06/01/2021,01:09:07.85,243.65,-1016.60,-19.04,-35.12,35.00,73.90,-153.90,-38.85,4.05,34.50,118.43,
06/01/2021,01:09:07.86,247.07,-1083.01,-18.07,-35.00,41.95,83.78,-153.90,-38.85,4.05,34.50,118.43,
06/01/2021,01:09:07.86,245.12,-1125.98,-4.88,-34.57,37.87,97.80,-153.90,-38.85,4.05,34.93,118.43,
06/01/2021,01:09:07.87,255.86,-1179.20,-17.58,-37.44,41.28,106.16,-153.30,-37.20,1.65,34.40,118.43,
06/01/2021,01:09:07.89,334.96,-1172.85,-16.11,-37.87,42.62,130.30,-151.65,-38.85,0.75,34.55,118.43,
06/01/2021,01:09:07.89,353.03,-1157.71,-44.43,-36.71,40.55,136.83,-151.65,-38.85,0.75,34.50,118.43,
06/01/2021,01:09:07.90,347.17,-1108.89,-41.02,-34.33,37.38,145.79,-150.45,-37.95,1.05,34.40,118.43,
06/01/2021,01:09:07.90,372.07,-1094.73,-64.94,-34.88,37.99,150.00,-151.20,-37.95,1.05,34.55,118.43,
06/01/2021,01:09:07.91,365.23,-1061.52,-88.87,-32.87,35.85,156.22,-151.20,-38.70,2.70,34.64,118.43,
06/01/2021,01:09:07.93,405.76,-1038.57,-131.35,-30.98,24.82,165.91,-151.50,-41.70,4.95,34.50,118.43,
06/01/2021,01:09:07.93,426.76,-1025.88,-135.74,-28.72,22.01,171.83,-151.50,-41.70,4.95,34.40,118.43,
06/01/2021,01:09:07.94,444.34,-1001.46,-146.00,-28.66,18.66,171.77,-149.70,-41.70,2.70,34.74,118.43,
06/01/2021,01:09:07.94,451.66,-1000.98,-145.02,-28.29,10.85,170.00,-149.70,-41.70,2.70,34.50,118.43,
06/01/2021,01:09:07.95,469.24,-979.98,-142.09,-27.99,5.30,171.95,-149.70,-41.70,2.70,34.50,118.43,
06/01/2021,01:09:07.97,462.89,-1008.79,-144.04,-24.70,-4.94,169.45,-148.95,-43.95,3.75,34.88,118.43,
06/01/2021,01:09:07.97,472.17,-1019.04,-152.83,-25.06,-9.88,171.83,-148.95,-43.95,3.75,34.40,118.43,
06/01/2021,01:09:07.98,470.70,-1054.69,-150.88,-22.32,-12.44,165.98,-148.05,-43.35,1.80,34.55,118.43,
06/01/2021,01:09:07.98,479.49,-1060.55,-144.04,-24.45,-14.88,163.66,-147.00,-42.90,1.80,34.40,118.43,
06/01/2021,01:09:07.99,462.40,-1108.89,-128.91,-23.48,-13.96,163.11,-147.00,-42.90,1.50,34.50,118.43,
06/01/2021,01:09:08.01,453.12,-1132.81,-124.02,-20.43,-20.12,153.41,-146.25,-45.15,2.55,34.50,118.43,
06/01/2021,01:09:08.01,450.20,-1140.14,-120.12,-19.45,-18.66,147.32,-146.25,-45.15,2.55,34.50,118.43,
06/01/2021,01:09:08.02,465.82,-1134.77,-136.72,-18.23,-16.34,142.50,-145.80,-44.25,0.60,34.64,118.43,
06/01/2021,01:09:08.02,447.75,-1143.55,-138.18,-18.05,-12.50,136.71,-145.50,-44.10,0.45,34.64,118.43,
06/01/2021,01:09:08.03,447.27,-1159.18,-132.81,-17.32,-5.79,129.39,-145.50,-44.10,0.45,34.36,118.43,
06/01/2021,01:09:08.05,420.90,-1176.27,-151.37,-14.27,9.94,114.88,-144.90,-45.60,0.45,34.50,118.43,
06/01/2021,01:09:08.05,451.66,-1168.95,-152.83,-11.59,18.72,107.01,-144.90,-45.60,0.45,34.64,118.43,
06/01/2021,01:09:08.06,443.85,-1158.69,-160.64,-12.99,25.55,99.39,-143.70,-44.40,-0.45,34.69,118.43,
06/01/2021,01:09:08.06,458.50,-1166.02,-142.09,-12.38,31.59,94.09,-143.25,-43.95,-0.30,34.36,118.43,
06/01/2021,01:09:08.07,463.38,-1139.65,-146.48,-12.44,38.17,89.09,-143.25,-43.95,-0.30,34.31,118.43,
06/01/2021,01:09:08.09,433.11,-1069.82,-123.05,-9.82,52.13,70.12,-143.10,-45.15,0.45,34.55,118.43,
06/01/2021,01:09:08.09,439.45,-1047.85,-134.77,-11.22,55.49,67.68,-143.10,-45.15,0.45,34.64,118.43,
06/01/2021,01:09:08.10,432.13,-1005.37,-120.61,-11.71,63.96,58.48,-143.70,-45.90,0.75,34.55,118.43,
06/01/2021,01:09:08.10,419.92,-977.54,-111.33,-12.07,67.44,52.38,-143.70,-45.90,0.75,34.69,118.43,
06/01/2021,01:09:08.11,426.27,-942.87,-108.40,-12.50,71.34,51.95,-143.70,-45.90,0.75,34.64,118.43,
06/01/2021,01:09:08.13,403.81,-907.23,-91.80,-11.65,75.55,39.94,-141.45,-46.20,1.05,34.55,118.43,
06/01/2021,01:09:08.13,415.53,-889.65,-89.84,-9.27,76.52,38.60,-141.45,-46.20,1.05,34.64,118.43,
06/01/2021,01:09:08.14,403.81,-879.88,-77.15,-9.94,78.35,34.21,-141.45,-46.20,1.05,34.69,118.43,
06/01/2021,01:09:08.14,394.53,-889.16,-75.68,-10.30,79.88,32.93,-138.75,-45.90,-0.15,34.36,118.43,
06/01/2021,01:09:08.15,389.65,-862.30,-57.13,-8.90,78.11,31.65,-138.75,-45.90,-0.15,34.40,118.43,
06/01/2021,01:09:08.17,375.00,-843.75,-42.48,-9.63,80.73,32.80,-140.70,-46.20,1.65,34.36,118.43,
06/01/2021,01:09:08.17,370.12,-834.96,-29.79,-9.21,77.44,32.87,-140.70,-46.20,1.65,34.64,118.43,
06/01/2021,01:09:08.18,382.32,-835.45,-28.32,-9.63,79.94,33.78,-138.30,-46.65,1.20,34.64,118.43,
06/01/2021,01:09:08.18,375.98,-852.05,-32.23,-10.37,78.23,32.80,-137.40,-46.95,-0.30,34.55,118.43,
06/01/2021,01:09:08.19,381.35,-840.33,-27.83,-6.77,75.98,34.88,-137.40,-46.95,-0.30,34.69,118.43,
06/01/2021,01:09:08.20,383.79,-841.80,-28.32,-7.32,72.74,43.23,-136.20,-47.10,1.50,34.50,118.43,
06/01/2021,01:09:08.21,395.51,-844.73,-38.09,-7.87,68.54,45.49,-136.20,-47.10,1.50,34.55,118.43,
06/01/2021,01:09:08.22,412.60,-841.80,-27.83,-8.96,71.04,47.13,-135.60,-47.25,-0.30,34.50,118.43,
06/01/2021,01:09:08.22,406.25,-847.66,-13.18,-10.79,68.60,47.26,-135.15,-46.65,-0.75,34.64,118.43,
06/01/2021,01:09:08.23,417.97,-838.87,-19.53,-10.49,64.82,49.70,-135.15,-46.65,-0.75,34.55,118.43,
06/01/2021,01:09:08.26,423.34,-816.41,4.88,-2.32,55.24,56.40,-135.60,-46.95,-0.30,34.64,118.43,
06/01/2021,01:09:08.29,443.36,-826.17,13.18,4.27,39.45,49.09,-132.75,-46.50,1.05,34.64,118.43,
06/01/2021,01:09:08.29,441.41,-830.08,8.79,6.34,37.50,49.94,-132.75,-46.50,1.05,34.36,118.43,
06/01/2021,01:09:08.30,450.20,-844.24,23.93,7.99,36.59,45.55,-132.75,-46.50,1.05,34.74,118.43,
06/01/2021,01:09:08.30,431.64,-856.45,21.00,10.79,33.17,40.79,-129.90,-46.95,-1.35,34.69,118.43,
06/01/2021,01:09:08.31,441.41,-868.16,9.77,10.91,28.29,35.98,-129.90,-46.95,-1.35,34.64,118.43,
06/01/2021,01:09:08.32,441.89,-914.06,-0.49,19.09,23.78,28.54,-131.10,-45.15,-1.20,34.50,118.43,
06/01/2021,01:09:08.33,423.83,-956.54,1.46,17.68,22.80,24.82,-131.10,-45.15,-1.20,34.50,118.43,
06/01/2021,01:09:08.34,422.85,-960.45,-3.42,21.22,24.88,20.85,-130.65,-47.25,-0.60,34.55,118.43,
06/01/2021,01:09:08.34,415.53,-963.87,-8.79,21.40,25.37,16.59,-130.35,-45.60,-1.50,34.55,118.43,
06/01/2021,01:09:08.35,404.79,-988.28,-8.79,24.27,24.51,13.41,-130.35,-45.60,-1.50,34.36,118.43,
06/01/2021,01:09:08.36,388.18,-1040.53,-2.44,24.88,37.87,3.96,-131.70,-45.75,-0.60,34.64,118.43,
06/01/2021,01:09:08.37,392.58,-1047.36,-5.86,26.28,38.60,0.79,-131.70,-45.75,-0.60,34.88,118.43,
06/01/2021,01:09:08.38,385.74,-1062.99,11.72,28.78,41.10,-3.05,-130.65,-45.45,-1.65,34.31,118.43,
06/01/2021,01:09:08.38,375.98,-1081.54,12.21,30.49,44.94,-6.28,-129.00,-45.90,0.75,34.64,118.43,
06/01/2021,01:09:08.39,373.54,-1111.82,9.77,30.91,52.32,-9.76,-129.00,-45.90,0.75,34.55,118.43,
06/01/2021,01:09:08.40,393.07,-1230.47,3.91,35.00,54.09,-11.40,-129.75,-45.90,2.55,34.74,118.43,
06/01/2021,01:09:08.41,398.44,-1317.87,7.81,34.76,56.34,-12.99,-129.75,-45.90,2.55,34.64,118.43,
06/01/2021,01:09:08.42,417.48,-1382.32,-3.42,33.35,56.28,-14.27,-128.10,-46.20,0.60,34.74,118.43,
06/01/2021,01:09:08.42,443.36,-1424.32,3.42,32.26,52.87,-10.98,-127.05,-43.95,1.35,34.69,118.43,
06/01/2021,01:09:08.43,463.87,-1450.20,11.72,29.63,54.88,-13.78,-127.05,-43.95,1.35,34.64,118.43,
06/01/2021,01:09:08.44,471.68,-1411.62,9.28,30.43,46.34,-16.52,-127.95,-45.60,2.25,34.55,118.43,
06/01/2021,01:09:08.45,452.15,-1376.46,13.18,28.96,46.46,-22.01,-127.95,-45.60,2.25,34.40,118.43,
06/01/2021,01:09:08.45,451.66,-1336.43,2.93,29.33,43.60,-21.65,-127.95,-45.60,2.25,34.50,118.43,
06/01/2021,01:09:08.46,425.78,-1329.10,-0.98,30.37,40.00,-27.38,-126.45,-44.40,1.50,34.74,118.43,
06/01/2021,01:09:08.47,418.46,-1278.81,-10.25,31.89,38.78,-32.07,-126.45,-44.40,1.50,34.50,118.43,
06/01/2021,01:09:08.47,427.73,-1229.00,-23.44,34.09,40.30,-38.66,-127.20,-45.90,1.80,34.50,118.43,
06/01/2021,01:09:08.49,422.85,-1078.61,-52.73,44.94,31.65,-54.70,-127.20,-45.90,1.80,34.55,118.43,
06/01/2021,01:09:08.49,426.76,-1017.09,-64.45,45.91,27.99,-61.65,-127.20,-46.65,4.05,34.74,118.43,
06/01/2021,01:09:08.50,448.73,-996.09,-76.17,51.10,18.11,-65.98,-125.10,-43.95,2.40,34.64,118.43,
06/01/2021,01:09:08.51,432.62,-969.73,-71.29,54.15,15.06,-73.11,-125.10,-43.95,2.40,34.64,118.43,
06/01/2021,01:09:08.51,430.18,-958.98,-88.87,58.96,6.22,-74.51,-125.10,-43.95,2.40,34.50,118.43,
06/01/2021,01:09:08.53,207.03,-1007.81,-259.28,52.26,-33.41,-76.46,-124.95,-44.10,3.60,34.64,118.43,
06/01/2021,01:09:08.53,71.78,-1049.80,-425.29,47.62,-58.90,-65.67,-129.00,-47.10,5.10,34.64,118.43,
06/01/2021,01:09:08.54,-31.25,-1116.70,-569.82,36.95,-83.35,-56.04,-129.00,-47.10,5.10,34.40,118.43,
06/01/2021,01:09:08.55,-237.79,-1183.59,-653.32,21.77,-96.59,-47.80,-129.00,-47.10,5.10,34.74,118.43,
06/01/2021,01:09:08.55,-266.11,-1229.00,-726.56,11.89,-116.65,-36.04,-126.00,-44.40,3.60,34.64,118.43,
06/01/2021,01:09:08.57,-500.98,-1223.14,-675.29,-12.80,-146.77,0.55,-127.20,-43.65,4.65,34.69,118.43,
06/01/2021,01:09:08.57,-560.55,-1169.92,-595.70,-18.29,-146.04,15.73,-129.90,-46.20,7.05,34.55,118.43,
06/01/2021,01:09:08.58,-534.18,-1138.67,-517.09,-23.11,-134.88,29.51,-128.85,-45.00,4.50,34.40,118.43,
06/01/2021,01:09:08.59,-481.93,-1110.84,-417.97,-23.90,-110.91,29.09,-128.85,-45.00,4.50,34.21,118.43,
06/01/2021,01:09:08.59,-383.79,-1088.87,-314.94,-23.48,-85.12,30.18,-130.05,-45.15,4.05,34.55,118.43,
06/01/2021,01:09:08.61,-77.64,-1147.46,-111.82,-18.05,-29.45,29.27,-129.00,-45.60,4.35,34.74,118.43,
06/01/2021,01:09:08.61,-9.28,-1161.13,-57.62,-21.28,-16.40,30.67,-132.15,-47.40,6.45,34.64,118.43,
06/01/2021,01:09:08.62,23.44,-1142.58,-14.65,-20.67,-5.98,30.24,-130.05,-43.65,3.60,34.64,118.43,
06/01/2021,01:09:08.63,17.09,-1125.49,-2.44,-20.91,3.84,30.61,-130.05,-43.65,3.60,34.64,118.43,
06/01/2021,01:09:08.63,46.39,-1086.91,8.79,-22.50,16.16,33.54,-130.20,-47.25,4.20,34.64,118.43,
06/01/2021,01:09:08.65,39.55,-1015.14,48.83,-24.15,58.11,21.40,-130.20,-47.25,4.20,34.64,118.43,
06/01/2021,01:09:08.65,21.48,-987.79,57.13,-25.00,77.32,12.13,-133.05,-49.80,6.60,34.55,118.43,
06/01/2021,01:09:08.66,43.95,-962.89,75.20,-26.46,98.72,6.83,-128.55,-46.35,4.05,34.55,118.43,
06/01/2021,01:09:08.67,64.94,-933.59,64.94,-26.59,119.27,-0.24,-128.55,-46.35,4.05,34.50,118.43,
06/01/2021,01:09:08.67,97.66,-909.67,103.52,-27.50,138.05,-4.21,-128.55,-46.35,4.05,34.55,118.43,
06/01/2021,01:09:08.69,181.15,-872.07,201.17,-28.66,168.17,-19.33,-127.05,-46.95,2.70,34.69,118.43,
06/01/2021,01:09:08.69,201.17,-857.91,241.70,-27.20,168.41,-19.27,-128.25,-48.60,5.40,34.40,118.43,
06/01/2021,01:09:08.70,233.40,-831.05,287.60,-26.16,168.60,-21.95,-128.25,-48.60,5.40,34.50,118.43,
06/01/2021,01:09:08.71,259.28,-853.03,312.50,-24.70,161.46,-24.70,-128.25,-48.60,5.40,34.50,118.43,
06/01/2021,01:09:08.71,264.16,-834.96,324.22,-24.76,151.71,-22.93,-124.95,-47.40,1.50,34.74,118.43,
06/01/2021,01:09:08.73,291.02,-830.57,339.36,-22.44,120.43,-21.65,-123.30,-47.70,1.65,34.40,118.43,
06/01/2021,01:09:08.73,289.55,-842.77,330.08,-21.10,109.51,-21.04,-123.30,-47.70,1.65,34.40,118.43,
06/01/2021,01:09:08.74,276.37,-839.84,327.15,-21.16,95.98,-22.38,-121.95,-47.70,1.05,34.40,118.43,
06/01/2021,01:09:08.79,241.70,-813.96,243.16,-12.26,11.52,1.95,-120.45,-49.80,0.30,34.40,118.43,
06/01/2021,01:09:08.81,223.63,-808.11,222.66,-6.16,8.84,6.59,-122.10,-47.85,0.15,34.64,118.43,
06/01/2021,01:09:08.82,214.36,-831.54,211.91,-3.96,3.72,12.38,-121.80,-48.60,-0.45,34.64,118.42,
06/01/2021,01:09:08.83,221.19,-826.17,206.54,-3.41,3.48,11.46,-121.95,-48.00,-0.60,34.64,118.42,
06/01/2021,01:09:08.83,229.98,-838.87,202.15,-2.50,5.73,10.18,-121.95,-48.00,-0.60,34.64,118.42,
06/01/2021,01:09:08.84,235.35,-853.03,204.59,-0.43,6.16,13.78,-120.30,-48.90,-1.20,34.64,118.43,
06/01/2021,01:09:08.85,249.51,-869.14,198.24,2.26,5.06,14.45,-120.30,-48.90,-1.20,34.64,118.43,
06/01/2021,01:09:08.85,254.39,-880.37,187.01,0.43,3.84,16.52,-119.10,-48.75,-1.65,34.64,118.43,
06/01/2021,01:09:08.87,272.46,-890.14,159.67,3.60,1.46,15.24,-119.10,-48.75,-1.65,34.31,118.42,
06/01/2021,01:09:08.87,293.46,-908.20,137.21,2.50,0.00,15.49,-119.25,-50.10,-1.20,34.40,118.43,
06/01/2021,01:09:08.88,303.71,-934.57,122.07,0.37,-2.93,15.73,-118.65,-48.30,-1.35,34.50,118.43,
06/01/2021,01:09:08.89,295.41,-949.71,99.61,3.11,-5.30,20.67,-118.65,-48.30,-1.35,34.50,118.43,
06/01/2021,01:09:08.89,278.32,-961.43,77.15,0.67,-3.72,20.18,-118.65,-48.30,-1.35,34.64,118.43,
06/01/2021,01:09:08.91,247.56,-1013.67,-21.97,-2.20,-2.13,20.18,-116.40,-47.85,-2.55,34.74,118.43,
06/01/2021,01:09:08.91,238.28,-1026.37,-66.89,-4.45,0.18,22.56,-120.15,-48.75,1.35,34.50,118.43,
06/01/2021,01:09:08.92,238.77,-1053.22,-74.71,-3.78,10.12,21.10,-120.15,-48.75,1.35,34.64,118.43,
06/01/2021,01:09:08.92,237.79,-1081.54,-73.24,-6.95,16.28,21.28,-120.15,-48.75,1.35,34.50,118.43,
06/01/2021,01:09:08.93,251.46,-1136.23,-45.41,-8.05,24.39,21.16,-116.70,-48.15,-1.50,34.55,118.43,
06/01/2021,01:09:08.95,292.97,-1324.71,35.64,-10.91,40.98,29.09,-117.30,-46.95,-1.65,34.40,118.43,
06/01/2021,01:09:08.95,326.17,-1405.27,73.73,-8.35,43.72,33.11,-117.30,-46.95,-1.65,34.50,118.43,
06/01/2021,01:09:08.96,368.65,-1442.38,70.31,-8.17,43.72,33.48,-116.10,-45.75,-2.70,34.55,118.43,
06/01/2021,01:09:08.96,418.95,-1443.85,83.50,-5.79,42.62,31.95,-116.10,-45.75,-2.70,34.64,118.43,
06/01/2021,01:09:08.97,465.33,-1399.90,99.61,-4.76,39.88,37.93,-116.85,-46.95,-3.45,34.64,118.43,
06/01/2021,01:09:08.99,519.53,-1240.72,81.05,1.83,14.33,31.04,-116.85,-46.95,-3.45,34.64,118.43,
06/01/2021,01:09:08.99,532.23,-1185.55,76.66,7.50,2.26,23.72,-117.45,-48.15,-0.75,34.69,118.43,
06/01/2021,01:09:09.00,533.69,-1164.55,57.62,11.83,-9.76,22.01,-114.30,-46.20,-3.45,34.55,118.43,
06/01/2021,01:09:09.00,547.36,-1138.67,36.62,16.71,-21.34,17.26,-114.30,-46.20,-3.45,34.69,118.43,
06/01/2021,01:09:09.01,532.71,-1106.93,15.62,20.06,-33.84,13.54,-114.30,-45.45,-3.75,34.69,118.43,
06/01/2021,01:09:09.02,517.09,-1037.11,-9.28,29.27,-69.76,-0.24,-113.25,-45.00,-3.15,34.50,118.43,
06/01/2021,01:09:09.03,490.23,-1022.46,-27.34,33.48,-84.21,-4.63,-116.85,-46.50,-2.10,34.69,118.43,
06/01/2021,01:09:09.04,479.00,-1000.98,-43.95,33.66,-100.00,-9.70,-114.00,-44.70,-2.70,34.50,118.43,
06/01/2021,01:09:09.04,469.73,-986.82,-56.15,35.73,-114.02,-14.21,-114.00,-44.70,-2.70,34.55,118.43,
06/01/2021,01:09:09.05,442.38,-984.86,-66.89,36.22,-120.00,-17.99,-115.50,-43.20,-2.70,34.50,118.43,
06/01/2021,01:09:09.06,389.16,-983.40,-101.07,40.00,-133.11,-30.18,-115.95,-44.40,-1.20,34.40,118.43,
06/01/2021,01:09:09.07,381.35,-994.14,-111.33,39.33,-137.87,-36.22,-118.50,-45.90,0.45,34.69,118.43,
06/01/2021,01:09:09.08,336.91,-1000.98,-121.58,37.74,-141.22,-39.21,-118.50,-45.90,0.45,34.50,118.43,
06/01/2021,01:09:09.08,316.89,-990.72,-107.42,36.52,-138.29,-42.99,-118.50,-45.90,0.45,34.50,118.43,
06/01/2021,01:09:09.09,267.58,-1012.21,-138.67,34.70,-130.91,-47.07,-117.60,-43.50,-1.05,34.55,118.43,
06/01/2021,01:09:09.10,219.24,-1019.53,-167.48,30.49,-115.37,-49.45,-118.80,-44.10,-1.20,34.50,118.43,
06/01/2021,01:09:09.11,187.50,-1025.39,-180.18,28.60,-107.32,-53.72,-118.80,-44.10,-1.20,34.74,118.43,
06/01/2021,01:09:09.12,170.90,-1009.77,-179.69,30.06,-97.07,-54.94,-120.90,-43.50,0.30,34.64,118.43,
06/01/2021,01:09:09.12,162.11,-1014.16,-185.06,27.62,-87.32,-57.01,-120.90,-43.50,0.30,34.88,118.43,
06/01/2021,01:09:09.13,148.44,-1031.74,-191.41,27.26,-84.21,-53.35,-121.35,-43.35,2.25,34.74,118.43,
06/01/2021,01:09:09.14,126.95,-1043.46,-192.38,24.09,-65.37,-59.27,-121.35,-43.35,2.25,34.64,118.43,
06/01/2021,01:09:09.15,129.39,-1036.62,-181.64,23.35,-60.55,-56.34,-125.85,-45.45,2.40,34.50,118.43,
06/01/2021,01:09:09.16,110.84,-1042.97,-180.66,23.54,-57.93,-56.04,-122.85,-44.10,0.75,34.55,118.43,
06/01/2021,01:09:09.16,99.12,-1040.53,-175.29,21.10,-58.23,-55.00,-122.85,-44.10,0.75,34.64,118.43,
06/01/2021,01:09:09.17,71.29,-1043.95,-182.62,18.60,-59.63,-51.40,-122.85,-44.10,0.75,34.50,118.43,
06/01/2021,01:09:09.18,44.92,-1055.18,-213.38,17.87,-56.22,-48.11,-123.90,-43.35,1.50,34.50,118.43,
06/01/2021,01:09:09.19,36.13,-1029.79,-218.75,15.00,-52.26,-46.89,-127.35,-45.45,3.15,34.74,118.43,
06/01/2021,01:09:09.20,33.69,-1032.23,-226.07,12.62,-48.54,-46.16,-125.70,-43.35,2.25,34.64,118.43,
06/01/2021,01:09:09.20,43.95,-992.19,-199.71,10.73,-40.79,-44.51,-125.70,-43.35,2.25,34.69,118.43,
06/01/2021,01:09:09.21,44.43,-972.66,-214.84,10.85,-35.37,-44.45,-126.30,-43.20,2.70,34.64,118.43,
06/01/2021,01:09:09.21,54.69,-951.66,-178.71,8.90,-26.22,-40.61,-126.30,-43.20,2.70,34.64,118.43,
06/01/2021,01:09:09.23,104.98,-901.37,-150.88,7.13,-21.83,-35.18,-127.35,-43.95,3.15,34.69,118.43,
06/01/2021,01:09:09.24,119.63,-898.44,-124.51,5.79,-16.59,-31.89,-128.25,-43.35,3.60,34.64,118.43,
06/01/2021,01:09:09.24,117.68,-886.72,-120.61,6.16,-17.74,-29.88,-128.25,-43.35,3.60,34.50,118.43,
06/01/2021,01:09:09.25,141.60,-874.02,-86.91,6.52,-14.51,-28.90,-127.35,-43.50,2.40,34.69,118.43,
06/01/2021,01:09:09.28,214.36,-827.64,-8.30,8.66,-7.26,-7.20,-129.90,-43.50,3.75,34.64,118.43,
06/01/2021,01:09:09.31,268.07,-807.13,34.67,8.35,-10.00,9.88,-130.20,-45.75,2.10,34.64,118.42,
06/01/2021,01:09:09.31,277.34,-817.87,31.25,11.04,-15.43,13.90,-130.20,-45.75,2.10,34.40,118.42,
06/01/2021,01:09:09.32,299.32,-821.29,35.64,10.79,-16.34,20.18,-128.25,-44.10,1.50,34.50,118.43,
06/01/2021,01:09:09.32,298.83,-840.82,43.95,11.52,-22.62,26.95,-128.25,-44.10,1.50,34.50,118.43,
06/01/2021,01:09:09.33,316.41,-824.22,51.76,12.68,-22.74,27.74,-128.25,-44.10,1.50,34.74,118.43,
06/01/2021,01:09:09.34,343.75,-834.47,77.64,13.84,-32.13,37.44,-129.00,-43.65,2.55,34.64,118.43,
06/01/2021,01:09:09.35,353.52,-822.27,85.94,10.67,-40.91,41.89,-129.00,-43.65,2.55,34.50,118.43,
06/01/2021,01:09:09.36,364.26,-831.05,85.45,12.99,-45.91,42.62,-129.00,-43.65,2.55,34.40,118.43,
06/01/2021,01:09:09.36,361.82,-853.03,77.64,13.90,-52.20,44.45,-129.00,-43.65,2.55,34.55,118.43,
06/01/2021,01:09:09.37,375.49,-854.49,75.20,12.87,-63.23,51.16,-128.25,-43.35,-0.15,34.50,118.43,
06/01/2021,01:09:09.38,394.53,-883.79,54.69,14.63,-84.33,55.24,-128.85,-43.95,1.05,34.50,118.43,
06/01/2021,01:09:09.39,383.79,-887.70,43.95,10.91,-93.72,56.46,-128.85,-43.95,1.05,34.50,118.43,
06/01/2021,01:09:09.40,387.70,-898.44,38.57,13.05,-99.33,54.57,-129.15,-43.20,1.35,34.69,118.43,
06/01/2021,01:09:09.40,368.65,-899.90,32.23,13.72,-102.13,58.66,-129.15,-43.20,1.35,34.64,118.43,
06/01/2021,01:09:09.41,368.16,-910.16,21.48,13.66,-107.56,56.59,-129.45,-42.00,-0.30,34.69,118.43,
06/01/2021,01:09:09.42,357.42,-939.45,-1.46,10.91,-112.44,52.44,-129.45,-42.00,-0.30,34.50,118.43,
06/01/2021,01:09:09.43,360.35,-935.55,-14.16,12.20,-113.48,52.74,-131.70,-42.75,3.45,34.50,118.43,
06/01/2021,01:09:09.44,353.03,-951.66,-31.25,11.59,-112.93,50.79,-131.70,-41.70,0.30,34.64,118.43,
06/01/2021,01:09:09.44,357.91,-962.89,-27.34,9.88,-110.12,49.94,-131.70,-41.70,0.30,34.64,118.43,
06/01/2021,01:09:09.45,352.05,-979.00,-25.88,11.28,-105.49,46.89,-131.25,-40.20,1.05,34.55,118.43,
06/01/2021,01:09:09.45,352.05,-995.12,-44.43,9.33,-105.12,45.79,-131.25,-40.20,1.05,34.64,118.43,
06/01/2021,01:09:09.47,375.98,-1002.44,-53.71,10.37,-96.28,36.65,-131.70,-43.95,2.40,34.50,118.43,
06/01/2021,01:09:09.48,353.03,-1017.09,-62.99,9.88,-87.44,34.21,-133.50,-42.00,2.40,34.50,118.43,
06/01/2021,01:09:09.48,376.46,-1018.07,-60.06,11.77,-81.83,31.95,-133.50,-42.00,2.40,34.93,118.43,
06/01/2021,01:09:09.49,387.21,-1018.07,-64.94,10.30,-80.85,26.65,-131.25,-40.95,2.40,34.50,118.43,
06/01/2021,01:09:09.49,372.56,-1021.00,-53.22,9.15,-75.43,24.45,-131.25,-40.95,2.40,34.40,118.43,
06/01/2021,01:09:09.51,379.39,-1013.18,-59.57,11.65,-68.23,15.73,-132.90,-44.10,1.80,34.50,118.43,
06/01/2021,01:09:09.52,385.25,-1015.14,-43.95,12.74,-66.16,11.04,-132.90,-44.10,1.80,34.40,118.43,
06/01/2021,01:09:09.52,402.34,-1032.23,-58.11,11.16,-64.09,9.70,-132.90,-44.10,1.80,34.55,118.43,
06/01/2021,01:09:09.53,390.14,-1037.11,-51.76,13.66,-63.66,8.11,-132.75,-41.70,2.10,34.55,118.43,
06/01/2021,01:09:09.53,404.79,-1021.97,-36.13,12.13,-62.44,5.91,-132.75,-42.45,2.10,34.64,118.43,
06/01/2021,01:09:09.55,416.02,-1102.54,-43.46,12.87,-64.57,3.72,-132.75,-42.45,2.10,34.50,118.43,
06/01/2021,01:09:09.56,423.34,-1144.04,-47.85,10.79,-67.01,5.49,-136.95,-41.85,3.60,34.74,118.43,
06/01/2021,01:09:09.56,422.36,-1215.82,-62.99,12.80,-70.12,7.32,-136.95,-41.85,3.60,34.64,118.43,
06/01/2021,01:09:09.57,443.85,-1294.92,-60.55,10.00,-70.49,5.55,-133.80,-43.20,3.15,34.64,118.43,
06/01/2021,01:09:09.57,453.12,-1364.26,-58.59,5.30,-71.28,9.45,-133.80,-43.20,3.15,34.69,118.43,
06/01/2021,01:09:09.59,484.38,-1456.05,-47.85,1.10,-73.96,10.91,-136.95,-42.90,4.35,34.64,118.43,
06/01/2021,01:09:09.59,497.07,-1448.73,-16.11,-0.67,-75.67,15.24,-136.65,-41.70,2.40,34.50,118.43,
06/01/2021,01:09:09.60,498.54,-1427.73,-8.30,-4.63,-76.04,10.73,-136.65,-41.70,2.40,34.64,118.43,
06/01/2021,01:09:09.61,485.35,-1402.34,-2.93,-4.27,-77.80,10.30,-136.65,-41.70,2.40,34.69,118.43,
06/01/2021,01:09:09.61,487.30,-1374.51,2.93,-6.40,-78.48,10.12,-136.65,-41.70,2.40,34.40,118.43,
06/01/2021,01:09:09.63,465.82,-1234.86,10.25,-7.20,-79.33,-11.16,-136.65,-43.20,3.75,34.50,118.43,
06/01/2021,01:09:09.63,474.61,-1168.95,4.39,-4.15,-80.79,-16.04,-136.65,-43.20,3.75,34.64,118.43,
06/01/2021,01:09:09.64,453.61,-1096.19,-9.28,-2.50,-84.39,-22.99,-136.65,-43.20,3.75,34.64,118.43,
06/01/2021,01:09:09.65,450.20,-1045.41,12.70,2.56,-87.56,-28.41,-136.65,-40.95,3.45,34.50,118.43,
06/01/2021,01:09:09.65,436.52,-992.68,2.44,1.46,-91.95,-37.01,-136.65,-40.95,3.45,34.64,118.43,
06/01/2021,01:09:09.67,411.13,-962.40,-3.42,6.16,-99.88,-50.55,-138.60,-43.20,5.25,34.55,118.43,
06/01/2021,01:09:09.67,394.04,-991.21,-7.81,6.04,-103.90,-56.65,-142.35,-43.65,4.65,34.74,118.43,
06/01/2021,01:09:09.68,389.16,-1027.83,-11.23,7.26,-104.15,-63.84,-142.35,-43.65,4.65,34.64,118.43,
06/01/2021,01:09:09.69,381.84,-1021.48,0.00,7.26,-105.00,-64.63,-141.30,-41.55,3.60,34.55,118.43,
06/01/2021,01:09:09.69,371.58,-1035.16,1.95,6.71,-107.07,-70.49,-141.30,-41.55,3.60,34.74,118.43,
06/01/2021,01:09:09.71,331.54,-1073.24,-2.44,1.40,-104.82,-75.30,-143.55,-43.20,5.55,34.64,118.43,
06/01/2021,01:09:09.71,341.80,-1086.91,-14.16,-0.49,-98.72,-76.89,-144.00,-43.95,6.00,34.64,118.43,
06/01/2021,01:09:09.72,320.31,-1094.73,-8.30,-0.18,-99.21,-73.05,-144.00,-43.95,6.00,34.64,118.43,
06/01/2021,01:09:09.72,328.12,-1083.98,1.46,-5.91,-92.87,-78.41,-145.05,-42.45,4.50,34.55,118.43,
06/01/2021,01:09:09.73,334.47,-1090.33,8.79,-7.99,-94.63,-76.10,-145.05,-42.45,4.50,34.50,118.43,
06/01/2021,01:09:09.74,315.43,-1088.38,10.74,-12.20,-84.27,-75.37,-145.05,-42.45,4.50,34.69,118.43,
06/01/2021,01:09:09.75,299.32,-1036.13,33.20,-18.96,-74.76,-77.68,-149.40,-44.25,6.30,34.50,118.43,
06/01/2021,01:09:09.76,273.44,-1033.69,42.97,-20.61,-68.29,-77.32,-149.40,-44.25,6.30,34.69,118.43,
06/01/2021,01:09:09.79,271.97,-1016.11,105.96,-22.44,-44.39,-76.95,-153.15,-43.65,7.20,34.40,118.43,
06/01/2021,01:09:09.81,272.46,-998.54,109.38,-19.82,-40.12,-80.91,-154.65,-41.85,7.20,34.74,118.43,
06/01/2021,01:09:09.81,266.11,-972.66,134.77,-20.00,-39.27,-77.80,-156.15,-43.95,6.30,34.55,118.43,
06/01/2021,01:09:09.83,280.76,-932.62,126.95,-16.89,-32.99,-80.98,-156.15,-43.95,6.30,34.74,118.43,
06/01/2021,01:09:09.83,255.37,-924.80,124.51,-13.96,-31.22,-81.89,-156.60,-42.75,6.00,34.64,118.43,
06/01/2021,01:09:09.84,251.46,-909.67,122.56,-10.91,-33.41,-84.09,-156.60,-42.75,6.00,34.64,118.43,
06/01/2021,01:09:09.85,258.30,-903.32,125.49,-12.01,-34.45,-86.40,-156.15,-41.70,3.75,34.50,118.43,
06/01/2021,01:09:09.85,265.14,-901.86,140.62,-9.02,-32.74,-86.52,-156.15,-41.70,3.75,34.50,118.43,
06/01/2021,01:09:09.87,255.86,-903.81,141.11,-6.71,-29.63,-86.16,-156.60,-41.25,3.75,34.64,118.43,
06/01/2021,01:09:09.87,250.49,-905.27,134.77,-3.29,-29.39,-86.89,-160.20,-40.20,4.20,34.64,118.43,
06/01/2021,01:09:09.88,252.93,-906.74,142.09,-3.29,-24.33,-85.43,-160.20,-40.20,4.20,34.64,118.43,
06/01/2021,01:09:09.89,257.32,-912.60,146.48,-0.37,-27.13,-81.59,-158.25,-40.05,4.05,34.69,118.43,
06/01/2021,01:09:09.89,245.61,-908.20,145.51,-2.62,-27.68,-82.38,-159.75,-38.25,2.40,34.64,118.43,
06/01/2021,01:09:09.91,228.52,-919.43,142.09,1.52,-25.55,-78.96,-160.20,-39.45,3.15,34.40,118.43,
06/01/2021,01:09:09.91,266.60,-910.16,143.07,3.72,-27.74,-77.74,-163.05,-37.50,3.45,34.40,118.43,
06/01/2021,01:09:09.92,250.49,-912.60,132.32,5.67,-24.63,-75.06,-163.05,-37.50,3.45,34.69,118.43,
06/01/2021,01:09:09.92,237.30,-901.37,129.39,5.67,-23.78,-73.05,-159.45,-37.20,0.30,34.74,118.43,
06/01/2021,01:09:09.93,247.07,-905.27,139.16,4.51,-24.39,-75.43,-159.60,-36.30,3.60,34.55,118.43,
06/01/2021,01:09:09.95,238.28,-907.71,96.19,7.32,-20.43,-69.09,-162.00,-37.50,2.40,34.50,118.43,
06/01/2021,01:09:09.95,237.30,-889.16,102.05,7.13,-20.12,-67.87,-162.00,-37.50,2.40,34.50,118.43,
06/01/2021,01:09:09.96,223.14,-876.46,93.75,6.95,-19.70,-66.28,-162.00,-37.50,2.40,34.64,118.43,
06/01/2021,01:09:09.96,228.52,-896.97,93.26,8.84,-15.73,-62.80,-161.70,-35.40,2.10,34.69,118.43,
06/01/2021,01:09:09.97,232.42,-873.54,93.75,9.51,-13.84,-61.59,-159.60,-34.05,1.80,34.55,118.43,
06/01/2021,01:09:09.99,226.07,-866.70,75.68,8.90,-4.02,-57.87,-159.60,-34.05,1.80,34.64,118.43,
06/01/2021,01:09:09.99,229.49,-875.00,80.57,8.23,-6.22,-55.37,-163.05,-33.90,2.40,34.64,118.43,
06/01/2021,01:09:10.00,235.35,-872.56,71.29,11.52,-3.23,-54.70,-163.05,-33.90,2.40,34.64,118.43,
06/01/2021,01:09:10.00,227.54,-884.77,62.99,12.50,2.20,-52.74,-161.10,-32.85,-0.15,34.74,118.43,
06/01/2021,01:09:10.01,223.63,-880.86,78.61,10.79,2.87,-49.15,-161.10,-32.85,-0.15,34.64,118.43,
06/01/2021,01:09:10.03,239.26,-874.02,67.38,11.10,10.67,-44.27,-161.25,-33.90,2.10,34.64,118.43,
06/01/2021,01:09:10.03,223.14,-884.28,42.48,10.67,10.49,-40.49,-163.50,-33.45,1.65,34.64,118.43,
06/01/2021,01:09:10.04,229.49,-884.28,54.69,10.67,11.65,-40.12,-163.50,-33.45,1.65,34.55,118.43,
06/01/2021,01:09:10.04,241.70,-897.95,46.39,10.73,17.13,-34.70,-163.50,-33.45,1.65,34.50,118.43,
06/01/2021,01:09:10.05,237.30,-899.90,37.11,12.93,19.88,-30.91,-163.50,-33.45,1.65,34.36,118.43,
06/01/2021,01:09:10.06,248.54,-915.53,52.73,13.41,21.65,-28.29,-161.10,-32.10,0.75,34.40,118.43,
06/01/2021,01:09:10.07,247.07,-920.41,15.14,14.21,26.65,-18.05,-162.60,-31.05,1.80,34.64,118.43,
06/01/2021,01:09:10.08,255.86,-927.73,23.93,12.93,24.15,-14.88,-162.60,-31.05,1.80,34.36,118.43,
06/01/2021,01:09:10.08,270.51,-928.22,9.77,14.82,26.65,-9.02,-160.05,-30.60,-0.15,34.40,118.43,
06/01/2021,01:09:10.09,261.72,-928.71,1.95,14.33,24.63,-4.57,-160.05,-30.60,-0.15,34.55,118.43,
06/01/2021,01:09:10.09,264.16,-933.59,-19.53,14.76,25.79,-1.46,-160.20,-28.95,1.05,34.64,118.43,
06/01/2021,01:09:10.11,284.67,-965.82,-34.18,15.49,23.29,12.99,-159.30,-31.80,-0.15,34.40,118.43,
06/01/2021,01:09:10.12,277.34,-979.98,-42.97,13.54,24.09,18.17,-159.30,-31.80,-0.15,34.40,118.43,
06/01/2021,01:09:10.12,282.71,-1023.93,-36.62,14.15,23.41,25.43,-160.20,-29.40,-0.30,34.64,118.43,
06/01/2021,01:09:10.13,283.20,-1076.17,-23.44,12.87,23.72,34.15,-160.20,-29.40,-0.30,34.50,118.43,
06/01/2021,01:09:10.13,274.90,-1141.60,-42.48,11.71,22.26,45.00,-159.60,-28.50,-0.75,34.55,118.43,
06/01/2021,01:09:10.15,314.45,-1278.32,-32.71,11.10,27.50,65.79,-160.35,-29.85,0.75,34.55,118.43,
06/01/2021,01:09:10.16,349.12,-1303.71,-38.09,11.04,30.85,72.38,-160.35,-29.85,0.75,34.40,118.43,
06/01/2021,01:09:10.16,373.54,-1264.16,-51.27,11.34,27.56,80.06,-157.35,-30.45,-1.35,34.64,118.43,
06/01/2021,01:09:10.17,384.28,-1229.00,-62.01,12.20,20.98,85.67,-157.35,-30.45,-1.35,34.69,118.43,
06/01/2021,01:09:10.17,410.64,-1164.06,-87.40,11.40,20.37,91.95,-157.35,-30.45,-1.35,34.40,118.43,
06/01/2021,01:09:10.19,412.60,-1038.57,-157.23,18.17,9.39,100.24,-158.40,-31.20,1.05,34.50,118.43,
06/01/2021,01:09:10.20,429.69,-981.93,-182.62,20.12,5.73,101.77,-158.40,-31.20,1.05,34.40,118.43,
06/01/2021,01:09:10.20,442.38,-950.20,-220.70,22.80,1.04,102.32,-158.40,-31.20,1.05,34.40,118.43,
06/01/2021,01:09:10.21,483.40,-914.06,-249.02,23.41,-5.79,103.17,-158.40,-31.20,1.05,34.55,118.43,
06/01/2021,01:09:10.21,489.26,-895.02,-267.58,25.30,-11.71,103.48,-157.05,-31.05,-0.75,34.64,118.43,
06/01/2021,01:09:10.23,530.27,-866.70,-300.78,26.89,-39.33,100.12,-156.75,-31.35,-1.20,34.36,118.43,
06/01/2021,01:09:10.24,523.93,-858.89,-315.92,25.55,-46.71,99.94,-156.75,-31.35,-1.20,34.40,118.43,
06/01/2021,01:09:10.24,514.16,-877.93,-332.52,24.76,-55.98,98.41,-155.70,-32.10,-1.20,34.55,118.43,
06/01/2021,01:09:10.25,520.02,-888.18,-334.47,23.17,-62.07,92.99,-155.70,-32.10,-1.20,34.74,118.43,
06/01/2021,01:09:10.25,527.34,-910.64,-346.68,22.20,-69.88,95.43,-157.65,-29.70,-0.60,34.69,118.43,
06/01/2021,01:09:10.27,483.40,-960.94,-342.29,16.16,-80.49,85.67,-158.25,-32.85,-1.80,34.50,118.43,
06/01/2021,01:09:10.30,362.79,-1043.95,-328.61,3.05,-50.98,62.99,-158.70,-31.95,-2.10,34.55,118.43,
06/01/2021,01:09:10.32,336.91,-1086.43,-333.50,-1.16,-19.39,49.70,-159.45,-32.40,-3.15,34.64,118.43,
06/01/2021,01:09:10.32,324.22,-1100.59,-343.26,-4.63,-3.54,42.07,-160.35,-32.55,-3.00,34.55,118.43,
06/01/2021,01:09:10.33,321.78,-1105.96,-346.68,-4.76,11.16,39.45,-157.35,-34.20,-4.50,34.64,118.43,
06/01/2021,01:09:10.34,347.66,-1100.59,-306.15,-8.11,45.24,26.77,-157.50,-32.10,-3.60,34.64,118.43,
06/01/2021,01:09:10.35,365.23,-1089.84,-293.95,-10.67,57.50,18.90,-160.35,-32.85,-2.55,34.64,118.43,
06/01/2021,01:09:10.36,367.19,-1059.57,-272.46,-11.71,65.06,16.34,-160.35,-32.85,-2.55,34.50,118.43,
06/01/2021,01:09:10.36,375.49,-1022.46,-255.86,-12.50,69.51,12.50,-160.35,-32.85,-2.55,34.40,118.43,
06/01/2021,01:09:10.37,370.12,-981.93,-214.36,-13.11,75.12,10.00,-156.90,-32.40,-5.25,34.31,118.43,
06/01/2021,01:09:10.38,393.07,-950.20,-209.96,-13.29,82.87,7.87,-156.90,-32.40,-5.25,34.50,118.43,
06/01/2021,01:09:10.39,413.09,-875.49,-183.11,-12.62,82.68,1.89,-157.05,-32.55,-5.10,34.50,118.43,
06/01/2021,01:09:10.40,415.53,-863.77,-150.39,-10.67,84.39,1.52,-157.05,-32.55,-5.10,34.50,118.43,
06/01/2021,01:09:10.40,412.60,-854.00,-166.99,-10.98,84.33,0.06,-155.55,-31.95,-3.15,34.55,118.43,
06/01/2021,01:09:10.41,417.97,-847.17,-157.23,-12.38,85.37,-2.07,-154.80,-32.70,-4.20,34.74,118.43,
06/01/2021,01:09:10.41,440.92,-838.87,-156.74,-13.23,87.62,-1.46,-154.80,-32.70,-4.20,34.64,118.43,
06/01/2021,01:09:10.43,479.98,-805.66,-111.33,-15.85,80.30,-10.00,-156.75,-31.35,-2.55,34.40,118.43,
06/01/2021,01:09:10.44,479.49,-791.50,-114.75,-14.02,73.72,-9.57,-156.75,-31.35,-2.55,34.64,118.43,
06/01/2021,01:09:10.44,463.38,-787.11,-78.12,-15.61,70.00,-7.93,-155.85,-31.20,-3.75,34.50,118.43,
06/01/2021,01:09:10.45,461.91,-779.30,-79.10,-15.91,60.85,-4.76,-155.85,-31.20,-3.75,34.64,118.43,
06/01/2021,01:09:10.45,454.59,-782.71,-80.08,-15.12,53.54,-2.56,-155.85,-31.20,-3.75,34.69,118.43,
06/01/2021,01:09:10.47,428.71,-784.18,-68.36,-10.55,29.88,6.10,-155.85,-31.95,-2.40,34.64,118.43,
06/01/2021,01:09:10.48,407.23,-780.76,-58.59,-11.16,25.30,11.83,-155.85,-31.95,-2.40,34.36,118.43,
06/01/2021,01:09:10.48,397.46,-780.76,-40.53,-10.24,19.63,12.32,-154.35,-32.40,-3.15,34.50,118.43,
06/01/2021,01:09:10.49,386.72,-791.99,-21.48,-9.39,10.91,18.66,-153.90,-33.60,-3.60,34.50,118.43,
06/01/2021,01:09:10.49,384.28,-794.92,-23.44,-7.20,4.70,22.80,-153.90,-33.60,-3.60,34.40,118.43,
06/01/2021,01:09:10.51,391.11,-812.01,6.35,-4.33,-7.20,34.70,-155.85,-32.40,-4.20,34.64,118.43,
06/01/2021,01:09:10.52,401.37,-820.80,0.98,-3.84,-11.83,37.99,-155.85,-32.40,-4.20,34.64,118.43,
06/01/2021,01:09:10.52,409.18,-811.04,-4.39,-3.48,-21.10,41.59,-154.80,-31.20,-3.75,34.50,118.43,
06/01/2021,01:09:10.53,403.81,-814.45,-15.14,-2.56,-27.80,46.71,-153.90,-30.60,-4.65,34.74,118.43,
06/01/2021,01:09:10.53,402.34,-808.11,-20.51,-1.83,-25.30,47.50,-153.90,-30.60,-4.65,34.55,118.43,
06/01/2021,01:09:10.55,399.41,-819.34,-40.04,0.43,-32.74,55.43,-152.40,-31.35,-6.45,34.55,118.43,
06/01/2021,01:09:10.56,410.64,-834.96,-50.29,1.22,-34.82,57.74,-152.40,-31.35,-6.45,34.74,118.43,
06/01/2021,01:09:10.56,421.39,-827.64,-58.11,3.72,-36.04,58.17,-152.25,-31.20,-6.60,34.40,118.43,
06/01/2021,01:09:10.57,420.90,-815.92,-56.64,5.12,-38.05,58.17,-153.75,-30.45,-7.05,34.55,118.43,
06/01/2021,01:09:10.57,448.73,-805.66,-63.48,6.10,-40.49,60.49,-153.75,-30.45,-7.05,34.55,118.43,
06/01/2021,01:09:10.59,460.45,-816.89,-75.20,9.02,-45.18,54.76,-153.30,-33.45,-8.40,34.36,118.43,
06/01/2021,01:09:10.59,456.05,-806.15,-93.26,11.16,-48.29,53.90,-153.30,-33.45,-8.40,34.40,118.43,
06/01/2021,01:09:10.60,464.84,-820.31,-85.45,11.34,-48.72,53.48,-151.05,-31.05,-8.25,34.55,118.43,
06/01/2021,01:09:10.61,460.45,-830.57,-87.89,13.96,-52.74,51.83,-151.05,-31.05,-8.25,34.40,118.43,
06/01/2021,01:09:10.61,478.03,-836.91,-100.10,12.13,-50.73,48.05,-151.05,-31.05,-8.25,34.55,118.43,
06/01/2021,01:09:10.63,494.14,-855.96,-102.54,16.65,-54.57,39.88,-152.25,-32.40,-9.45,34.50,118.43,
06/01/2021,01:09:10.63,499.02,-854.98,-103.03,18.48,-59.15,37.32,-152.25,-32.40,-9.45,34.64,118.43,
06/01/2021,01:09:10.64,496.09,-868.65,-117.19,19.94,-62.38,32.80,-152.25,-32.40,-9.45,34.40,118.43,
06/01/2021,01:09:10.65,483.40,-884.77,-134.77,20.24,-59.76,31.59,-150.45,-31.95,-12.30,34.64,118.43,
06/01/2021,01:09:10.65,485.35,-897.46,-130.86,23.11,-58.54,25.67,-150.45,-31.95,-12.30,34.64,118.43,
06/01/2021,01:09:10.67,494.14,-937.01,-155.76,22.13,-57.26,18.35,-150.45,-31.20,-10.50,34.64,118.43,
06/01/2021,01:09:10.67,499.51,-949.22,-160.64,23.90,-55.30,14.88,-150.45,-31.20,-10.50,34.64,118.43,
06/01/2021,01:09:10.68,504.88,-960.94,-166.50,24.02,-57.26,12.50,-148.95,-31.95,-12.60,34.50,118.43,
06/01/2021,01:09:10.69,519.53,-954.10,-177.73,26.10,-54.21,9.33,-146.10,-32.40,-13.35,34.74,118.43,
06/01/2021,01:09:10.69,506.35,-962.40,-181.15,26.34,-55.73,4.88,-146.10,-32.40,-13.35,34.55,118.43,
06/01/2021,01:09:10.71,512.21,-963.38,-202.15,25.73,-50.98,-0.12,-147.75,-32.55,-10.35,34.40,118.43,
06/01/2021,01:09:10.71,513.67,-965.82,-194.82,26.95,-50.12,-5.98,-147.75,-32.55,-10.35,34.64,118.43,
06/01/2021,01:09:10.72,524.41,-956.05,-202.64,25.61,-48.41,-11.28,-146.25,-32.55,-12.90,34.40,118.43,
06/01/2021,01:09:10.73,508.79,-965.82,-214.36,28.17,-47.07,-8.23,-145.95,-33.60,-12.15,34.64,118.43,
06/01/2021,01:09:10.73,505.86,-997.07,-207.03,28.66,-51.16,-12.13,-145.95,-33.60,-12.15,34.40,118.43,
06/01/2021,01:09:10.75,545.41,-1223.63,-236.33,27.50,-49.15,-6.95,-146.10,-35.70,-9.90,34.50,118.43,
06/01/2021,01:09:10.75,594.73,-1362.30,-250.00,26.46,-53.48,-6.77,-146.10,-35.70,-9.90,34.69,118.43,
06/01/2021,01:09:10.76,631.84,-1520.51,-255.86,21.71,-56.28,-2.87,-145.35,-33.90,-9.45,34.88,118.43,
06/01/2021,01:09:10.77,686.52,-1631.84,-266.11,16.52,-60.55,-1.22,-145.35,-33.90,-9.45,34.40,118.43,
06/01/2021,01:09:10.77,735.35,-1695.80,-265.62,10.91,-69.33,2.07,-145.35,-33.90,-9.45,34.93,118.43,
06/01/2021,01:09:10.82,581.54,-1263.18,-119.14,-12.32,-69.15,-44.02,-148.65,-38.70,-7.65,34.64,118.43,
06/01/2021,01:09:10.83,468.75,-1121.58,-142.09,-9.02,-66.10,-67.32,-148.65,-38.70,-7.65,34.40,118.43,
06/01/2021,01:09:10.84,425.29,-1117.19,-165.53,-7.93,-63.66,-80.37,-150.60,-37.35,-8.25,34.50,118.43,
06/01/2021,01:09:10.84,385.25,-1099.12,-171.88,-6.71,-60.85,-87.62,-150.60,-37.35,-8.25,34.64,118.43,
06/01/2021,01:09:10.85,361.82,-1105.47,-195.80,-6.40,-55.06,-92.80,-149.10,-36.30,-8.25,34.64,118.43,
06/01/2021,01:09:10.86,357.42,-1088.87,-187.50,-6.83,-40.67,-114.39,-149.70,-36.75,-9.15,34.50,118.43,
06/01/2021,01:09:10.87,345.21,-1073.73,-171.39,-4.88,-30.24,-118.78,-152.10,-36.60,-6.15,34.40,118.43,
06/01/2021,01:09:10.88,356.45,-1057.62,-169.43,-7.38,-24.76,-121.95,-151.35,-36.60,-9.60,34.40,118.43,
06/01/2021,01:09:10.88,346.19,-1052.73,-140.62,-5.55,-15.98,-127.13,-151.35,-36.60,-9.60,34.55,118.43,
06/01/2021,01:09:10.89,349.12,-1043.46,-135.25,-7.20,-10.12,-129.21,-151.65,-37.35,-6.45,34.64,118.43,
06/01/2021,01:09:10.90,360.35,-1067.87,-104.00,-12.50,3.41,-131.95,-154.80,-38.70,-6.60,34.50,118.43,
06/01/2021,01:09:10.91,353.52,-1054.69,-93.26,-16.04,11.65,-133.41,-154.80,-38.70,-6.60,34.40,118.43,
06/01/2021,01:09:10.92,362.79,-1050.78,-83.98,-14.15,9.33,-130.67,-155.25,-35.55,-9.00,34.36,118.43,
06/01/2021,01:09:10.92,354.98,-1042.48,-61.52,-16.16,14.09,-131.10,-155.25,-35.55,-9.00,34.64,118.43,
06/01/2021,01:09:10.93,381.84,-1017.58,-38.09,-18.41,14.76,-131.52,-155.25,-35.55,-9.00,34.40,118.43,
06/01/2021,01:09:10.94,340.33,-995.61,3.42,-18.66,13.35,-125.55,-156.45,-36.30,-5.70,34.69,118.43,
06/01/2021,01:09:10.95,330.08,-998.54,4.39,-19.82,11.16,-126.40,-156.45,-36.30,-5.70,34.55,118.43,
06/01/2021,01:09:10.96,322.27,-976.07,19.53,-18.54,10.24,-120.61,-156.45,-36.30,-5.70,34.64,118.43,
06/01/2021,01:09:10.96,299.32,-993.16,24.90,-19.02,10.91,-119.82,-156.45,-36.30,-5.70,34.50,118.43,
06/01/2021,01:09:10.97,293.46,-988.28,34.18,-18.96,9.57,-116.95,-155.85,-35.70,-8.70,34.64,118.43,
06/01/2021,01:09:10.98,285.64,-995.61,48.34,-19.21,3.96,-109.09,-157.05,-35.10,-8.55,34.64,118.43,
06/01/2021,01:09:10.99,281.25,-959.96,52.25,-18.60,5.49,-106.89,-157.05,-35.10,-8.55,34.64,118.43,
06/01/2021,01:09:11.00,282.71,-963.87,42.48,-18.78,4.88,-102.93,-157.35,-35.40,-10.50,34.64,118.43,
06/01/2021,01:09:11.00,287.11,-946.78,65.43,-16.83,2.80,-97.99,-157.35,-35.40,-10.50,34.50,118.43,
06/01/2021,01:09:11.01,280.76,-943.36,54.20,-18.11,-0.91,-98.66,-157.65,-35.70,-8.10,34.64,118.43,
06/01/2021,01:09:11.01,282.23,-935.06,56.64,-16.52,-1.34,-94.21,-157.65,-35.70,-8.10,34.74,118.43,
06/01/2021,01:09:11.03,261.72,-902.34,63.48,-14.51,-1.04,-90.06,-157.80,-34.80,-8.25,34.40,118.43,
06/01/2021,01:09:11.04,271.48,-896.97,48.83,-14.82,0.12,-89.27,-159.45,-34.20,-6.30,34.50,118.43,
06/01/2021,01:09:11.04,244.14,-888.18,64.94,-15.12,1.04,-86.95,-159.45,-34.20,-6.30,34.64,118.43,
06/01/2021,01:09:11.05,250.49,-880.86,48.83,-11.52,3.11,-81.65,-159.45,-34.20,-6.30,34.64,118.43,
06/01/2021,01:09:11.05,246.58,-864.26,41.99,-14.51,7.20,-84.82,-158.55,-32.85,-9.30,34.64,118.43,
06/01/2021,01:09:11.07,245.61,-848.14,39.55,-10.30,11.89,-81.77,-158.85,-35.10,-8.25,34.40,118.43,
06/01/2021,01:09:11.08,238.28,-854.49,54.69,-8.11,9.82,-80.73,-160.20,-33.45,-7.35,34.74,118.43,
06/01/2021,01:09:11.08,249.02,-847.66,53.22,-8.48,15.12,-77.68,-160.20,-33.45,-7.35,34.64,118.43,
06/01/2021,01:09:11.09,234.38,-843.75,59.08,-7.74,16.04,-81.28,-157.80,-31.35,-10.05,34.69,118.43,
06/01/2021,01:09:11.09,242.19,-843.75,44.92,-6.10,19.51,-79.94,-159.15,-33.15,-9.45,34.50,118.43,
06/01/2021,01:09:11.11,238.28,-844.73,40.53,-2.93,19.21,-78.78,-157.50,-33.30,-8.55,34.64,118.43,
06/01/2021,01:09:11.11,237.30,-824.22,50.29,-1.71,21.89,-78.60,-160.65,-31.05,-6.15,34.50,118.43,
06/01/2021,01:09:11.12,217.77,-831.05,41.50,-0.79,26.22,-78.66,-160.65,-31.05,-6.15,34.31,118.43,
06/01/2021,01:09:11.13,228.52,-833.50,48.83,-0.49,22.20,-78.96,-158.25,-31.05,-8.55,34.50,118.43,
06/01/2021,01:09:11.13,217.77,-840.82,30.27,-2.07,23.41,-80.12,-158.40,-31.65,-8.10,34.31,118.43,
06/01/2021,01:09:11.15,229.00,-838.87,21.00,-0.37,24.70,-73.29,-158.40,-31.65,-8.10,34.64,118.43,
06/01/2021,01:09:11.15,216.31,-838.38,30.76,1.22,31.83,-68.48,-160.05,-31.35,-6.90,34.40,118.43,
06/01/2021,01:09:11.16,210.45,-835.94,28.32,-2.01,29.45,-67.68,-160.05,-31.35,-6.90,34.64,118.43,
06/01/2021,01:09:11.17,226.56,-837.89,31.74,0.30,28.96,-63.48,-157.50,-29.85,-8.55,34.64,118.43,
06/01/2021,01:09:11.17,212.40,-826.17,35.16,-0.79,31.04,-60.00,-157.50,-29.85,-8.55,34.55,118.43,
06/01/2021,01:09:11.19,201.17,-798.34,34.18,-2.93,35.24,-48.72,-157.50,-30.60,-6.90,34.50,118.43,
06/01/2021,01:09:11.19,200.20,-798.83,9.28,-2.99,34.21,-43.96,-158.70,-30.90,-7.65,34.21,118.43,
06/01/2021,01:09:11.20,204.10,-779.30,18.07,-1.71,35.85,-33.90,-158.70,-30.90,-7.65,34.36,118.43,
06/01/2021,01:09:11.21,206.54,-776.37,20.02,-4.02,35.91,-27.56,-158.70,-30.90,-7.65,34.50,118.43,
06/01/2021,01:09:11.21,209.47,-778.81,13.18,-4.51,38.35,-21.40,-158.70,-30.90,-7.65,34.64,118.43,
06/01/2021,01:09:11.23,197.27,-760.25,9.28,-8.84,39.82,-2.20,-157.95,-31.65,-6.60,34.40,118.43,
06/01/2021,01:09:11.23,214.84,-769.04,-1.95,-9.94,37.74,5.37,-157.95,-31.65,-6.60,34.69,118.43,
06/01/2021,01:09:11.24,211.43,-777.34,0.98,-10.00,37.87,16.77,-157.95,-31.65,-6.60,34.55,118.43,
06/01/2021,01:09:11.24,208.01,-770.02,-2.44,-12.38,40.00,24.39,-158.55,-29.85,-10.05,34.55,118.43,
06/01/2021,01:09:11.25,227.05,-783.20,-4.39,-16.04,38.96,31.65,-158.55,-29.85,-10.05,34.64,118.43,
06/01/2021,01:09:11.26,230.47,-783.20,-16.60,-16.22,41.52,42.93,-158.25,-29.55,-7.50,34.55,118.43,
06/01/2021,01:09:11.27,262.70,-795.90,-20.02,-21.46,43.90,63.17,-157.05,-30.60,-5.70,34.21,118.43,
06/01/2021,01:09:11.28,266.60,-820.80,-36.62,-23.72,42.93,73.84,-157.05,-30.60,-5.70,34.40,118.43,
06/01/2021,01:09:11.28,256.35,-800.78,-60.06,-27.99,42.74,79.94,-156.60,-30.45,-7.35,34.36,118.43,
06/01/2021,01:09:11.29,276.37,-822.27,-55.66,-29.02,41.46,88.96,-156.60,-30.45,-7.35,34.64,118.43,
06/01/2021,01:09:11.32,241.21,-1095.70,1.95,-37.50,52.74,152.87,-158.70,-33.45,-6.30,34.64,118.43,
06/01/2021,01:09:11.35,386.23,-1501.46,27.34,-37.20,56.83,208.23,-156.75,-35.10,-4.05,34.40,118.43,
06/01/2021,01:09:11.35,430.66,-1509.28,25.39,-37.38,52.93,218.96,-156.75,-34.80,-4.65,34.64,118.43,
06/01/2021,01:09:11.36,459.96,-1494.14,6.35,-35.37,47.13,225.55,-156.75,-34.80,-4.65,34.50,118.43,
06/01/2021,01:09:11.37,493.16,-1447.75,-31.74,-34.02,43.48,232.87,-156.75,-34.80,-4.65,34.69,118.43,
06/01/2021,01:09:11.37,520.51,-1396.00,-71.29,-30.55,33.48,239.27,-154.95,-36.60,-7.20,34.55,118.43,
06/01/2021,01:09:11.39,609.38,-1320.31,-178.22,-24.82,10.55,247.87,-153.15,-37.80,-6.45,34.64,118.43,
06/01/2021,01:09:11.39,644.53,-1310.55,-211.43,-25.30,-0.49,248.48,-153.15,-37.80,-6.45,34.50,118.43,
06/01/2021,01:09:11.40,696.78,-1308.11,-233.40,-21.89,-13.90,246.52,-153.15,-37.80,-6.45,34.40,118.43,
06/01/2021,01:09:11.41,742.19,-1297.85,-262.21,-23.66,-28.66,242.68,-152.25,-39.00,-6.60,34.74,118.43,
06/01/2021,01:09:11.41,775.88,-1270.51,-254.88,-21.77,-44.27,239.27,-151.05,-38.55,-6.15,34.40,118.43,
06/01/2021,01:09:11.43,841.80,-1213.38,-224.12,-17.68,-81.83,214.94,-151.05,-38.55,-6.15,34.74,118.43,
06/01/2021,01:09:11.43,871.58,-1211.91,-207.52,-17.07,-91.28,201.95,-154.05,-42.00,-3.75,34.69,118.43,
06/01/2021,01:09:11.44,873.54,-1180.18,-179.69,-14.51,-99.88,184.51,-154.05,-42.00,-3.75,34.21,118.43,
06/01/2021,01:09:11.45,886.72,-1150.88,-153.32,-10.55,-106.34,167.56,-150.60,-41.85,-7.95,34.40,118.43,
06/01/2021,01:09:11.45,876.46,-1129.88,-136.23,-7.20,-113.29,149.88,-151.95,-40.50,-8.40,34.50,118.43,
06/01/2021,01:09:11.47,728.03,-1082.52,-164.06,5.12,-115.49,104.45,-151.05,-41.10,-7.20,34.40,118.43,
06/01/2021,01:09:11.47,638.18,-1065.92,-187.99,8.48,-116.22,88.54,-153.90,-43.65,-6.45,34.50,118.43,
06/01/2021,01:09:11.48,543.95,-1071.78,-217.77,9.88,-109.76,74.27,-152.25,-41.70,-8.40,34.50,118.43,
06/01/2021,01:09:11.49,460.94,-1070.31,-266.60,11.46,-99.82,61.22,-152.25,-41.70,-8.40,34.69,118.43,
06/01/2021,01:09:11.49,400.88,-1075.20,-293.95,9.82,-88.90,49.09,-151.35,-41.85,-9.60,34.74,118.43,
06/01/2021,01:09:11.51,293.46,-1057.62,-333.01,5.18,-31.28,25.49,-150.75,-42.00,-7.35,34.40,118.43,
06/01/2021,01:09:11.51,287.11,-1040.04,-323.73,2.13,-4.15,20.98,-153.90,-44.85,-6.90,34.40,118.43,
06/01/2021,01:09:11.52,280.76,-1014.65,-329.59,2.13,19.51,11.95,-153.90,-44.85,-6.90,34.40,118.43,
06/01/2021,01:09:11.53,291.02,-995.12,-294.92,-1.95,46.16,4.15,-153.90,-44.85,-6.90,34.64,118.43,
06/01/2021,01:09:11.53,322.75,-973.63,-280.27,-5.61,71.22,0.91,-151.35,-41.55,-8.25,34.69,118.43,
06/01/2021,01:09:11.55,348.14,-934.57,-214.84,-7.50,121.65,-3.78,-151.65,-43.65,-9.30,34.64,118.43,
06/01/2021,01:09:11.55,364.26,-906.74,-181.64,-10.18,140.30,-6.83,-151.65,-43.65,-9.30,34.55,118.43,
06/01/2021,01:09:11.56,402.34,-901.37,-144.53,-10.49,151.28,-7.93,-151.65,-43.65,-9.30,34.50,118.43,
06/01/2021,01:09:11.57,441.89,-862.79,-114.75,-12.74,155.98,-10.43,-151.35,-42.90,-7.95,34.64,118.43,
06/01/2021,01:09:11.57,472.66,-841.31,-94.73,-11.46,158.23,-8.48,-149.85,-42.15,-9.00,34.50,118.43,
06/01/2021,01:09:11.59,547.36,-776.86,-44.43,-14.88,146.95,-6.22,-149.85,-42.15,-9.00,34.64,118.43,
06/01/2021,01:09:11.59,564.45,-757.81,-22.95,-14.39,136.65,-5.30,-152.10,-43.35,-4.05,34.69,118.43,
06/01/2021,01:09:11.60,584.47,-750.00,-19.53,-13.05,121.34,-1.71,-148.50,-41.55,-8.25,34.40,118.43,
06/01/2021,01:09:11.61,584.47,-734.38,0.49,-15.49,110.91,-2.87,-148.50,-41.55,-8.25,34.69,118.43,
06/01/2021,01:09:11.61,594.24,-749.51,12.70,-12.68,90.24,1.59,-148.50,-41.55,-8.25,34.74,118.43,
06/01/2021,01:09:11.63,580.57,-736.82,26.37,-8.96,44.45,8.05,-146.85,-42.75,-7.35,34.64,118.43,
06/01/2021,01:09:11.63,583.01,-737.79,27.83,-10.24,25.61,11.77,-149.70,-43.20,-5.25,34.40,118.43,
06/01/2021,01:09:11.64,574.71,-750.00,29.30,-6.46,8.78,11.71,-149.70,-43.20,-5.25,34.40,118.43,
06/01/2021,01:09:11.65,557.13,-774.41,26.86,-8.05,-7.07,13.60,-149.70,-43.20,-5.25,34.64,118.43,
06/01/2021,01:09:11.65,534.18,-775.88,43.95,-9.02,-23.05,16.46,-147.00,-42.60,-6.45,34.64,118.43,
06/01/2021,01:09:11.67,519.53,-818.36,10.74,-2.93,-56.46,19.63,-146.25,-42.60,-7.50,34.64,118.43,
06/01/2021,01:09:11.67,501.95,-842.77,10.74,-1.52,-65.24,21.65,-149.40,-44.70,-6.00,34.55,118.43,
06/01/2021,01:09:11.68,495.12,-852.54,-6.84,-0.37,-69.70,23.72,-149.40,-44.70,-6.00,34.64,118.43,
06/01/2021,01:09:11.68,481.45,-864.26,0.00,0.85,-78.72,25.00,-146.85,-42.75,-8.10,34.55,118.43,
06/01/2021,01:09:11.69,488.77,-881.35,-1.95,3.35,-78.66,21.34,-148.50,-42.90,-7.50,34.50,118.43,
06/01/2021,01:09:11.71,494.63,-924.80,-21.48,5.55,-81.10,16.04,-147.75,-44.40,-8.25,34.50,118.43,
06/01/2021,01:09:11.71,475.10,-920.90,-22.95,7.20,-80.24,14.88,-148.65,-41.70,-8.10,34.40,118.43,
06/01/2021,01:09:11.72,491.21,-918.95,-28.32,9.45,-80.12,12.80,-148.65,-41.70,-8.10,34.55,118.43,
06/01/2021,01:09:11.72,486.33,-924.32,-23.44,12.32,-80.30,5.30,-149.10,-43.35,-9.00,34.55,118.43,
06/01/2021,01:09:11.73,490.23,-931.64,-28.32,13.66,-78.90,3.48,-147.75,-41.85,-7.95,34.64,118.43,
06/01/2021,01:09:11.74,467.77,-927.73,-21.00,14.39,-74.57,-3.11,-147.75,-41.85,-7.95,34.40,118.43,
06/01/2021,01:09:11.75,472.17,-909.67,-44.43,21.04,-70.49,-12.74,-151.50,-43.50,-7.35,34.69,118.43,
06/01/2021,01:09:11.76,447.27,-899.41,-50.29,21.34,-70.00,-18.72,-151.50,-43.50,-7.35,34.64,118.43,
06/01/2021,01:09:11.76,446.29,-900.88,-49.32,23.23,-68.90,-23.23,-150.15,-40.95,-9.15,34.74,118.43,
06/01/2021,01:09:11.77,447.27,-894.04,-61.52,25.85,-68.11,-27.99,-150.15,-40.95,-9.15,34.88,118.43,
06/01/2021,01:09:11.78,448.73,-899.41,-72.75,28.17,-74.39,-32.13,-150.15,-40.95,-9.15,34.50,118.43,
06/01/2021,01:09:11.79,459.96,-905.27,-66.41,28.35,-70.18,-40.85,-153.30,-42.45,-8.10,34.64,118.43,
06/01/2021,01:09:11.80,452.64,-913.09,-76.17,29.02,-67.87,-44.02,-153.30,-42.45,-8.10,34.64,118.43,
06/01/2021,01:09:11.85,412.60,-1060.55,-61.52,30.12,-70.06,-61.40,-154.95,-41.55,-7.95,34.64,118.43,
06/01/2021,01:09:11.86,405.27,-1077.15,-55.18,28.66,-70.37,-62.44,-154.95,-41.55,-7.95,34.64,118.42,
06/01/2021,01:09:11.87,393.55,-1104.49,-63.48,29.15,-64.09,-60.98,-155.70,-41.85,-9.00,34.69,118.43,
06/01/2021,01:09:11.89,389.65,-1254.39,-66.89,29.39,-56.77,-57.56,-153.00,-39.75,-8.70,34.64,118.42,
06/01/2021,01:09:11.89,422.36,-1350.59,-71.29,27.87,-55.43,-55.79,-157.35,-42.75,-7.35,34.50,118.42,
06/01/2021,01:09:11.90,448.73,-1434.57,-66.89,25.79,-56.10,-53.29,-155.55,-39.75,-10.50,34.40,118.42,
06/01/2021,01:09:11.90,466.80,-1495.12,-65.92,22.38,-55.73,-52.01,-155.55,-39.75,-10.50,34.50,118.43,
06/01/2021,01:09:11.91,487.79,-1519.53,-59.08,21.59,-57.68,-52.80,-154.65,-40.80,-10.65,34.55,118.43,
06/01/2021,01:09:11.93,506.84,-1485.35,-28.81,14.27,-58.60,-47.01,-155.10,-39.00,-10.50,34.50,118.42,
06/01/2021,01:09:11.93,499.51,-1468.75,-26.86,12.32,-60.43,-45.49,-157.65,-40.20,-8.40,34.50,118.42,
06/01/2021,01:09:11.94,485.35,-1436.04,-7.32,14.15,-65.73,-47.26,-155.85,-39.00,-11.55,34.55,118.43,
06/01/2021,01:09:11.94,493.65,-1382.32,3.91,10.06,-64.94,-52.56,-155.85,-39.00,-11.55,34.50,118.43,
06/01/2021,01:09:11.95,476.07,-1347.66,-3.42,10.06,-68.29,-52.38,-155.70,-38.55,-10.65,34.64,118.43,
06/01/2021,01:09:11.97,468.26,-1223.63,45.41,11.04,-78.05,-61.83,-155.70,-38.55,-9.30,34.55,118.42,
06/01/2021,01:09:11.97,444.34,-1155.76,19.53,12.01,-83.35,-64.45,-157.95,-41.70,-8.10,34.50,118.43,
06/01/2021,01:09:11.98,423.83,-1106.45,44.43,13.78,-80.43,-70.91,-156.90,-38.25,-12.30,34.64,118.43,
06/01/2021,01:09:11.98,409.18,-1064.94,34.18,14.57,-88.11,-74.39,-156.90,-38.25,-12.30,34.64,118.43,
06/01/2021,01:09:11.99,392.58,-1048.34,33.20,15.55,-92.87,-76.83,-156.90,-38.25,-12.30,34.50,118.43,
06/01/2021,01:09:12.01,382.81,-1014.65,39.06,19.76,-98.90,-87.44,-158.85,-37.80,-11.10,34.40,118.43,
06/01/2021,01:09:12.01,359.38,-1004.39,33.69,20.85,-98.90,-87.87,-159.60,-39.30,-9.60,34.64,118.43,
06/01/2021,01:09:12.02,343.75,-1022.46,21.48,21.83,-100.06,-87.26,-159.60,-39.30,-9.60,34.64,118.43,
06/01/2021,01:09:12.02,344.24,-998.05,17.09,21.10,-101.34,-88.17,-159.60,-39.30,-9.60,34.50,118.43,
06/01/2021,01:09:12.03,333.98,-993.16,33.20,20.85,-102.56,-89.57,-158.85,-37.35,-11.40,34.64,118.43,
06/01/2021,01:09:12.05,327.64,-1003.91,17.09,15.61,-101.34,-87.20,-158.85,-37.35,-13.95,34.50,118.43,
06/01/2021,01:09:12.05,323.73,-995.61,15.62,14.27,-103.05,-87.01,-158.85,-37.35,-13.95,34.40,118.43,
06/01/2021,01:09:12.06,318.36,-990.23,29.79,14.15,-102.44,-84.70,-160.20,-36.45,-12.00,34.64,118.43,
06/01/2021,01:09:12.06,304.20,-996.58,19.04,10.12,-100.73,-84.70,-160.20,-36.45,-12.00,34.64,118.43,
06/01/2021,01:09:12.07,291.99,-958.50,49.80,8.17,-96.83,-83.78,-160.65,-36.60,-12.45,34.55,118.43,
06/01/2021,01:09:12.09,267.58,-946.29,62.01,7.20,-89.70,-79.21,-160.65,-36.60,-12.45,34.74,118.43,
06/01/2021,01:09:12.09,272.95,-944.82,63.96,5.98,-85.73,-76.40,-163.50,-37.20,-11.55,34.74,118.43,
06/01/2021,01:09:12.10,273.93,-939.94,64.94,3.78,-83.48,-73.78,-162.15,-35.55,-14.55,34.64,118.43,
06/01/2021,01:09:12.10,270.02,-934.57,85.94,4.94,-82.32,-73.84,-162.15,-35.55,-14.55,34.50,118.43,
06/01/2021,01:09:12.11,260.25,-927.73,87.89,2.44,-78.35,-71.16,-162.30,-35.70,-15.45,34.64,118.43,
06/01/2021,01:09:12.13,271.48,-913.57,100.59,2.62,-79.09,-62.38,-162.75,-33.15,-14.85,34.83,118.43,
06/01/2021,01:09:12.13,284.18,-924.80,89.84,2.44,-75.91,-60.24,-163.95,-35.10,-12.15,34.69,118.43,
06/01/2021,01:09:12.14,271.97,-916.99,108.40,1.77,-75.49,-58.60,-163.20,-34.35,-15.30,34.50,118.43,
06/01/2021,01:09:12.14,267.09,-905.27,116.70,0.55,-73.35,-56.71,-163.20,-34.35,-15.30,34.64,118.43,
06/01/2021,01:09:12.15,266.60,-908.69,122.56,1.52,-77.99,-49.39,-164.40,-34.35,-16.35,34.69,118.43,
06/01/2021,01:09:12.17,260.74,-873.05,109.86,0.30,-78.29,-42.56,-164.10,-33.45,-15.90,34.55,118.43,
06/01/2021,01:09:12.17,275.88,-875.49,122.56,-0.24,-76.89,-41.46,-168.15,-32.70,-13.80,34.50,118.43,
06/01/2021,01:09:12.18,284.67,-862.30,111.82,-1.22,-71.77,-40.73,-168.15,-32.70,-13.80,34.55,118.43,
06/01/2021,01:09:12.18,271.97,-862.30,125.49,-0.55,-74.88,-38.05,-168.15,-32.70,-13.80,34.69,118.43,
06/01/2021,01:09:12.19,276.37,-862.30,116.70,-0.49,-71.22,-31.52,-164.55,-33.45,-18.30,34.64,118.43,
06/01/2021,01:09:12.21,264.16,-851.56,139.16,1.10,-68.41,-28.23,-165.75,-32.10,-16.80,34.40,118.43,
06/01/2021,01:09:12.21,254.88,-853.52,130.86,-0.55,-65.24,-28.11,-165.75,-32.10,-16.80,34.50,118.43,
06/01/2021,01:09:12.22,266.11,-862.79,153.32,0.12,-65.49,-26.28,-166.65,-33.15,-17.55,34.40,118.43,
06/01/2021,01:09:12.22,270.02,-875.98,152.83,-0.24,-68.35,-25.06,-166.65,-33.15,-17.55,34.40,118.43,
06/01/2021,01:09:12.23,279.79,-869.14,158.69,0.24,-62.20,-22.74,-166.65,-31.95,-18.30,34.50,118.43,
06/01/2021,01:09:12.25,283.20,-893.07,157.71,3.05,-60.37,-18.78,-166.65,-31.95,-18.30,34.55,118.43,
06/01/2021,01:09:12.25,275.88,-896.48,161.62,4.70,-58.84,-17.20,-167.40,-34.65,-16.20,34.50,118.43,
06/01/2021,01:09:12.26,275.88,-903.32,162.60,3.96,-56.95,-19.94,-167.25,-30.60,-18.15,34.88,118.43,
06/01/2021,01:09:12.26,281.25,-912.11,159.67,5.18,-55.73,-17.62,-167.25,-30.60,-18.15,34.64,118.43,
06/01/2021,01:09:12.27,271.00,-931.15,173.34,6.40,-56.28,-16.46,-167.25,-30.60,-18.15,34.64,118.43,
06/01/2021,01:09:12.29,272.95,-917.48,171.88,10.98,-48.23,-15.30,-167.40,-33.15,-18.75,34.40,118.43,
06/01/2021,01:09:12.29,276.37,-914.06,171.39,12.01,-48.72,-14.88,-167.40,-33.15,-18.75,34.69,118.43,
06/01/2021,01:09:12.30,276.37,-920.90,173.83,12.62,-46.46,-15.98,-167.40,-33.15,-18.75,34.64,118.43,
06/01/2021,01:09:12.30,273.44,-913.57,158.69,15.55,-46.83,-13.96,-167.40,-33.15,-18.75,34.40,118.43,
06/01/2021,01:09:12.34,274.90,-875.49,147.95,27.68,-37.20,-13.41,-169.05,-33.30,-19.95,34.40,118.43,
06/01/2021,01:09:12.36,261.72,-942.38,139.65,30.98,-32.44,-6.83,-169.95,-32.70,-18.00,34.64,118.42,
06/01/2021,01:09:12.37,275.88,-960.94,125.00,34.33,-29.45,-4.88,-169.80,-32.10,-20.70,34.50,118.42,
06/01/2021,01:09:12.37,269.53,-972.17,113.28,34.82,-27.44,-1.04,-169.80,-32.10,-20.70,34.69,118.42,
06/01/2021,01:09:12.38,268.55,-992.68,96.68,32.56,-22.38,0.12,-167.70,-32.40,-22.20,34.36,118.42,
06/01/2021,01:09:12.39,281.25,-1019.53,103.52,36.34,-18.17,1.34,-168.60,-31.35,-20.70,34.64,118.42,
06/01/2021,01:09:12.40,298.34,-1013.67,81.54,36.59,-10.06,5.85,-168.60,-31.35,-20.70,34.36,118.42,
06/01/2021,01:09:12.41,311.04,-1010.25,79.10,38.84,-9.27,7.20,-169.35,-32.85,-20.25,34.64,118.42,
06/01/2021,01:09:12.41,311.52,-987.79,74.22,38.05,-9.63,9.39,-169.35,-32.85,-20.25,34.36,118.42,
06/01/2021,01:09:12.42,296.88,-989.75,62.99,38.72,-4.39,8.35,-167.25,-31.35,-22.05,34.64,118.42,
06/01/2021,01:09:12.43,313.48,-951.66,63.96,40.98,-6.83,11.10,-167.25,-31.35,-22.05,34.40,118.43,
06/01/2021,01:09:12.44,321.29,-975.59,45.41,43.72,1.46,8.41,-167.70,-34.65,-20.10,34.69,118.42,
06/01/2021,01:09:12.45,298.34,-1018.55,41.50,47.50,1.22,15.18,-170.25,-31.95,-20.10,34.40,118.42,
06/01/2021,01:09:12.45,300.29,-1086.43,34.18,50.55,4.21,17.62,-170.25,-31.95,-20.10,34.50,118.42,
06/01/2021,01:09:12.46,306.64,-1131.35,63.96,51.65,9.88,18.17,-170.25,-31.95,-20.10,34.69,118.43,
06/01/2021,01:09:12.47,315.43,-1232.42,41.99,54.70,12.26,22.56,-167.70,-33.15,-20.40,34.74,118.43,
06/01/2021,01:09:12.47,334.47,-1273.93,32.71,54.70,12.80,30.30,-167.70,-33.15,-20.40,34.50,118.43,
06/01/2021,01:09:12.49,397.46,-1315.43,9.77,62.32,17.07,40.79,-167.40,-30.90,-21.15,34.74,118.43,
06/01/2021,01:09:12.49,410.64,-1285.64,-8.79,62.93,9.33,43.72,-167.40,-30.90,-21.15,34.50,118.43,
06/01/2021,01:09:12.50,428.71,-1190.92,-48.34,66.28,7.20,45.37,-167.40,-33.15,-19.35,34.64,118.43,
06/01/2021,01:09:12.50,451.17,-1132.32,-81.54,68.84,0.61,51.40,-168.30,-32.10,-18.90,34.69,118.43,
06/01/2021,01:09:12.51,478.03,-1051.76,-116.21,73.54,-10.00,52.87,-168.30,-32.10,-18.90,34.64,118.43,
06/01/2021,01:09:12.53,548.83,-932.13,-216.31,79.88,-41.22,56.65,-169.05,-34.05,-17.40,34.64,118.43,
06/01/2021,01:09:12.53,564.94,-899.41,-246.58,83.60,-56.10,56.71,-169.05,-34.05,-17.40,34.50,118.43,
06/01/2021,01:09:12.54,584.47,-886.23,-292.48,85.61,-75.91,56.95,-167.40,-31.95,-20.10,34.31,118.43,
06/01/2021,01:09:12.54,614.26,-876.46,-296.39,85.98,-94.02,57.01,-168.30,-34.05,-20.25,34.64,118.43,
06/01/2021,01:09:12.55,639.16,-878.42,-339.36,85.73,-111.89,53.29,-168.30,-34.05,-20.25,34.55,118.43,
06/01/2021,01:09:12.57,631.35,-902.83,-406.25,81.46,-156.04,47.68,-168.15,-33.45,-19.80,34.50,118.43,
06/01/2021,01:09:12.57,637.70,-908.69,-425.29,82.38,-170.67,47.07,-168.15,-33.45,-19.80,34.64,118.43,
06/01/2021,01:09:12.58,617.19,-921.88,-438.48,79.76,-189.39,43.35,-168.30,-32.55,-19.95,34.88,118.43,
06/01/2021,01:09:12.58,589.36,-932.62,-445.31,74.82,-201.10,38.66,-168.45,-34.20,-23.25,34.64,118.43,
06/01/2021,01:09:12.59,569.34,-934.08,-466.80,73.66,-206.28,34.63,-168.45,-34.20,-23.25,34.40,118.43,
06/01/2021,01:09:12.61,439.94,-926.27,-506.35,62.50,-207.07,22.93,-170.85,-35.85,-22.80,34.50,118.43,
06/01/2021,01:09:12.61,397.46,-938.48,-524.41,59.51,-201.46,17.44,-170.85,-35.85,-22.80,34.55,118.43,
06/01/2021,01:09:12.62,343.26,-953.61,-528.81,54.15,-189.82,16.22,-169.35,-34.35,-24.45,34.55,118.43,
06/01/2021,01:09:12.62,294.92,-982.91,-532.23,49.51,-176.04,10.67,-168.90,-34.65,-26.85,34.50,118.43,
06/01/2021,01:09:12.63,279.30,-1013.67,-550.29,45.12,-158.66,6.04,-168.90,-34.65,-26.85,34.50,118.43,
06/01/2021,01:09:12.65,206.05,-1088.38,-544.92,35.18,-102.87,-0.30,-167.55,-34.80,-26.25,34.50,118.43,
06/01/2021,01:09:12.65,172.36,-1107.42,-536.62,30.37,-81.89,-3.05,-167.55,-34.80,-26.25,34.55,118.43,
06/01/2021,01:09:12.66,191.89,-1102.05,-514.65,24.45,-56.89,-4.82,-170.85,-35.85,-28.80,34.64,118.43,
06/01/2021,01:09:12.66,208.50,-1110.84,-515.62,20.37,-41.77,-8.48,-169.20,-35.70,-29.25,34.40,118.43,
06/01/2021,01:09:12.67,227.05,-1104.98,-488.77,15.55,-21.40,-10.30,-169.20,-35.70,-29.25,34.36,118.43,
06/01/2021,01:09:12.69,309.57,-1048.34,-433.11,8.54,10.12,-13.17,-171.15,-35.85,-28.80,34.40,118.43,
06/01/2021,01:09:12.69,331.05,-1010.25,-429.20,5.24,17.93,-18.84,-171.30,-35.85,-28.80,34.50,118.43,
06/01/2021,01:09:12.70,345.70,-991.21,-403.81,2.32,23.41,-17.26,-171.30,-34.95,-26.85,34.64,118.43,
06/01/2021,01:09:12.70,381.84,-966.31,-362.79,2.62,24.45,-18.48,-171.30,-34.95,-26.85,34.50,118.43,
06/01/2021,01:09:12.71,403.81,-947.75,-355.96,1.46,23.60,-18.54,-171.30,-34.95,-26.85,34.64,118.43,
06/01/2021,01:09:12.73,423.34,-924.32,-330.57,0.24,14.09,-19.51,-170.25,-35.70,-27.60,34.40,118.43,
06/01/2021,01:09:12.73,429.20,-912.60,-306.64,-3.17,10.24,-16.89,-170.25,-35.70,-27.60,34.64,118.43,
06/01/2021,01:09:12.74,428.71,-899.90,-291.99,-6.34,7.87,-20.00,-170.25,-35.70,-27.60,34.50,118.43,
06/01/2021,01:09:12.74,427.73,-877.93,-289.06,-6.83,2.56,-17.50,-169.35,-34.80,-29.55,34.83,118.43,
06/01/2021,01:09:12.75,436.04,-894.53,-273.93,-9.21,-1.04,-17.56,-169.35,-34.80,-29.55,34.64,118.43,
06/01/2021,01:09:12.77,416.02,-862.30,-216.80,-8.96,-19.02,-14.88,-169.80,-36.60,-27.30,34.64,118.43,
06/01/2021,01:09:12.77,395.02,-855.96,-200.68,-10.61,-21.65,-12.74,-169.80,-36.60,-27.30,34.88,118.43,
06/01/2021,01:09:12.78,396.97,-856.93,-192.38,-11.65,-23.23,-10.12,-169.95,-34.65,-27.15,34.21,118.43,
06/01/2021,01:09:12.78,388.18,-858.89,-197.75,-10.43,-27.07,-7.62,-169.05,-35.55,-28.80,34.50,118.43,
06/01/2021,01:09:12.79,374.02,-847.66,-162.60,-10.79,-28.84,-5.37,-169.05,-35.55,-28.80,34.50,118.43,
06/01/2021,01:09:12.81,374.51,-864.26,-164.55,-12.13,-34.82,2.32,-169.80,-33.60,-27.75,34.31,118.43,
06/01/2021,01:09:12.81,361.33,-864.26,-143.07,-11.28,-34.82,4.39,-169.50,-34.95,-27.60,34.50,118.43,
06/01/2021,01:09:12.85,370.12,-834.47,-96.68,-9.94,-35.06,19.63,-169.50,-35.70,-28.65,34.50,118.42,
06/01/2021,01:09:12.86,390.62,-816.89,-83.01,-10.55,-39.09,24.70,-170.85,-35.55,-28.80,34.55,118.42,
06/01/2021,01:09:12.87,388.18,-823.73,-100.10,-9.51,-39.21,28.35,-170.85,-35.55,-28.80,34.64,118.42,
06/01/2021,01:09:12.88,414.55,-795.90,-72.75,-7.01,-45.61,33.35,-170.70,-34.95,-28.65,34.69,118.42,
06/01/2021,01:09:12.89,414.55,-802.73,-73.73,-3.72,-49.70,32.68,-170.70,-34.95,-28.65,34.64,118.42,
06/01/2021,01:09:12.89,419.43,-798.34,-59.57,-5.00,-55.98,36.89,-170.70,-34.95,-28.65,34.50,118.42,
06/01/2021,01:09:12.90,432.13,-789.06,-54.20,-3.41,-56.52,34.70,-170.70,-34.95,-28.65,34.40,118.42,
06/01/2021,01:09:12.91,437.99,-789.06,-63.96,-2.44,-65.00,38.41,-169.20,-33.45,-31.05,34.64,118.42,
06/01/2021,01:09:12.92,454.59,-793.95,-57.62,0.18,-73.60,37.99,-169.05,-36.60,-30.90,34.50,118.42,
06/01/2021,01:09:12.93,447.75,-822.27,-49.80,3.11,-80.30,37.80,-169.05,-36.60,-30.90,34.40,118.42,
06/01/2021,01:09:12.93,456.05,-832.52,-46.39,3.96,-83.72,40.00,-169.50,-35.70,-31.05,34.69,118.42,
06/01/2021,01:09:12.94,461.43,-851.07,-52.25,2.62,-87.87,39.15,-169.50,-35.70,-31.05,34.50,118.42,
06/01/2021,01:09:12.95,457.03,-866.70,-71.78,3.66,-91.28,39.45,-168.00,-35.55,-32.25,34.55,118.43,
06/01/2021,01:09:12.96,471.68,-927.73,-67.38,2.50,-97.38,38.90,-168.45,-36.00,-32.10,34.50,118.42,
06/01/2021,01:09:12.97,472.17,-943.85,-70.80,3.48,-100.12,40.06,-168.45,-36.00,-32.10,34.69,118.42,
06/01/2021,01:09:12.97,464.36,-958.50,-64.94,3.41,-99.94,37.93,-167.70,-36.00,-33.15,34.55,118.42,
06/01/2021,01:09:12.98,466.80,-970.70,-79.59,3.72,-98.23,36.34,-167.70,-36.00,-33.15,34.55,118.43,
06/01/2021,01:09:12.99,477.05,-954.59,-70.80,2.26,-98.66,35.73,-168.00,-36.30,-32.70,34.21,118.43,
06/01/2021,01:09:13.00,485.84,-938.96,-83.98,4.82,-94.88,25.67,-168.45,-38.25,-32.55,34.40,118.42,
06/01/2021,01:09:13.01,481.93,-935.55,-79.10,6.28,-90.85,22.01,-168.45,-38.25,-32.55,34.55,118.42,
06/01/2021,01:09:13.01,479.00,-910.16,-77.15,7.38,-89.02,19.45,-167.10,-36.75,-36.00,34.55,118.43,
06/01/2021,01:09:13.02,480.47,-911.13,-63.48,9.63,-85.79,10.06,-167.10,-36.75,-36.00,34.36,118.43,
06/01/2021,01:09:13.03,479.98,-909.67,-59.57,12.93,-82.01,6.65,-166.65,-36.45,-34.65,34.40,118.43,
06/01/2021,01:09:13.04,485.84,-972.17,-46.88,17.01,-77.80,-4.57,-169.35,-39.30,-35.85,34.55,118.42,
06/01/2021,01:09:13.05,482.42,-1039.06,-44.92,18.96,-75.37,-5.67,-169.35,-39.30,-35.85,34.55,118.43,
06/01/2021,01:09:13.05,483.40,-1103.03,-47.85,20.24,-73.96,-9.76,-169.35,-39.30,-35.85,34.40,118.43,
06/01/2021,01:09:13.06,496.58,-1146.48,-59.08,21.83,-73.84,-14.09,-169.35,-39.30,-35.85,34.64,118.43,
06/01/2021,01:09:13.07,535.64,-1223.14,-41.02,23.84,-74.63,-16.52,-165.30,-36.75,-37.50,34.64,118.43,
06/01/2021,01:09:13.08,544.92,-1324.71,-35.16,25.24,-74.94,-19.27,-165.30,-37.95,-37.05,34.74,118.43,
06/01/2021,01:09:13.09,559.57,-1369.14,-29.79,24.02,-75.85,-21.89,-165.30,-37.95,-37.05,34.31,118.43,
06/01/2021,01:09:13.09,562.01,-1371.09,-10.74,25.85,-75.79,-25.49,-166.50,-36.60,-37.65,34.31,118.43,
06/01/2021,01:09:13.10,568.36,-1387.70,-3.42,26.34,-81.59,-28.96,-167.55,-37.05,-37.65,34.50,118.43,
06/01/2021,01:09:13.11,583.50,-1374.02,-3.91,27.20,-82.68,-28.05,-167.55,-37.05,-37.65,34.69,118.43,
06/01/2021,01:09:13.12,578.12,-1296.88,-3.42,30.30,-93.90,-37.13,-166.65,-37.50,-36.45,34.50,118.43,
06/01/2021,01:09:13.13,553.71,-1268.55,-1.95,32.26,-107.20,-38.05,-166.65,-37.50,-36.45,34.64,118.43,
06/01/2021,01:09:13.13,549.80,-1181.15,4.88,32.93,-111.77,-44.70,-165.60,-36.45,-39.15,34.31,118.43,
06/01/2021,01:09:13.14,545.90,-1132.81,-3.42,33.23,-122.26,-44.82,-165.60,-36.45,-39.15,34.69,118.43,
06/01/2021,01:09:13.15,514.65,-1078.61,-4.39,34.21,-125.73,-50.30,-165.60,-36.45,-39.15,34.69,118.43,
06/01/2021,01:09:13.16,489.75,-965.82,-11.23,34.63,-141.22,-60.30,-167.10,-37.50,-40.20,34.64,118.43,
06/01/2021,01:09:13.17,460.94,-918.46,-0.98,36.04,-146.04,-62.68,-167.10,-37.50,-40.20,34.36,118.43,
06/01/2021,01:09:13.17,448.73,-904.30,-5.37,34.45,-148.90,-65.49,-167.10,-37.50,-40.20,34.69,118.43,
06/01/2021,01:09:13.18,410.64,-896.48,-0.98,35.12,-151.59,-69.76,-164.40,-37.35,-40.80,34.55,118.43,
06/01/2021,01:09:13.19,408.20,-896.00,-26.37,34.94,-153.90,-70.00,-164.40,-37.35,-40.80,34.31,118.43,
06/01/2021,01:09:13.20,388.67,-953.12,-32.23,30.43,-154.33,-74.02,-165.75,-37.35,-41.55,34.36,118.43,
06/01/2021,01:09:13.21,371.58,-977.05,-30.27,28.72,-152.01,-75.12,-165.75,-37.35,-41.55,34.64,118.43,
06/01/2021,01:09:13.21,370.61,-1004.39,-19.04,25.00,-149.09,-73.05,-165.00,-35.10,-42.60,34.36,118.43,
06/01/2021,01:09:13.22,366.70,-1027.83,-28.32,22.38,-147.26,-73.29,-162.15,-35.10,-42.15,34.64,118.43,
06/01/2021,01:09:13.23,354.98,-1015.62,-31.74,19.57,-145.30,-72.62,-162.15,-35.10,-42.15,34.31,118.43,
06/01/2021,01:09:13.24,347.17,-1054.69,13.67,9.57,-127.62,-70.85,-163.80,-34.95,-42.75,34.40,118.43,
06/01/2021,01:09:13.25,329.59,-1046.39,34.67,7.62,-119.70,-72.62,-163.80,-34.95,-42.75,34.55,118.43,
06/01/2021,01:09:13.25,328.61,-1045.90,24.41,6.04,-114.57,-73.84,-163.95,-34.80,-44.70,34.50,118.43,
06/01/2021,01:09:13.26,318.36,-1046.88,48.83,4.45,-106.16,-70.49,-161.85,-36.60,-45.75,34.74,118.43,
06/01/2021,01:09:13.27,320.80,-1035.64,67.87,3.05,-99.45,-72.80,-161.85,-36.60,-45.75,34.40,118.43,
06/01/2021,01:09:13.28,294.43,-1038.57,132.81,3.35,-90.12,-72.74,-162.90,-35.10,-45.45,34.50,118.43,
06/01/2021,01:09:13.29,282.71,-1032.23,137.21,2.80,-85.98,-77.32,-162.90,-35.10,-45.45,34.64,118.43,
06/01/2021,01:09:13.29,273.44,-1049.32,142.09,2.99,-78.54,-75.06,-163.50,-33.15,-45.90,34.21,118.43,
06/01/2021,01:09:13.30,309.08,-1046.88,161.62,2.56,-77.32,-74.51,-163.50,-33.15,-45.90,34.50,118.43,
06/01/2021,01:09:13.31,318.85,-1053.22,169.43,3.54,-71.65,-75.06,-163.50,-33.15,-45.90,34.40,118.43,
06/01/2021,01:09:13.32,335.45,-1054.69,155.76,2.87,-67.68,-76.46,-160.50,-34.65,-45.60,34.69,118.43,
06/01/2021,01:09:13.36,307.13,-993.16,146.00,6.16,-57.44,-77.74,-163.80,-32.70,-45.60,34.50,118.42,
06/01/2021,01:09:13.37,314.94,-966.80,173.83,10.98,-54.57,-79.15,-162.75,-35.40,-47.40,34.64,118.42,
06/01/2021,01:09:13.38,311.52,-965.82,193.36,12.38,-54.94,-79.70,-162.75,-35.40,-47.40,34.64,118.42,
06/01/2021,01:09:13.38,319.34,-972.66,206.54,14.70,-50.49,-77.01,-160.65,-31.05,-48.60,34.55,118.42,
06/01/2021,01:09:13.40,303.71,-975.10,236.82,23.84,-55.00,-77.62,-160.20,-33.15,-48.75,34.50,118.42,
