rtcDate,rtcTime,aX,aY,aZ,gX,gY,gZ,mX,mY,mZ,imu_degC,output_Hz,
06/01/2021,01:10:11.31,276.86,-1132.81,430.66,38.54,-33.90,-92.01,-198.45,-60.30,-71.25,32.82,134.05,
06/01/2021,01:10:11.35,244.14,-1404.30,469.24,43.96,-55.67,-121.10,-198.75,-59.10,-72.00,32.53,134.05,
06/01/2021,01:10:11.37,235.84,-1423.34,453.61,46.59,-64.88,-122.20,-196.20,-56.70,-73.35,32.92,134.05,
06/01/2021,01:10:11.37,196.78,-1430.18,441.41,47.20,-73.96,-118.84,-196.80,-56.55,-73.95,33.11,134.05,
06/01/2021,01:10:11.38,161.13,-1424.80,428.71,51.83,-83.78,-116.04,-196.80,-56.55,-73.95,32.92,134.05,
06/01/2021,01:10:11.39,206.54,-1576.66,383.79,59.63,-112.99,-105.00,-196.20,-55.95,-72.30,32.53,134.05,
06/01/2021,01:10:11.40,174.32,-1598.14,442.38,66.65,-124.94,-110.85,-196.20,-55.95,-72.30,32.82,134.05,
06/01/2021,01:10:11.40,108.89,-1544.43,465.33,71.28,-136.34,-113.35,-194.85,-53.55,-73.20,32.63,134.05,
06/01/2021,01:10:11.41,83.01,-1500.49,450.68,78.60,-145.85,-110.98,-194.85,-53.55,-73.20,32.44,134.05,
06/01/2021,01:10:11.41,104.98,-1485.35,409.67,84.51,-149.45,-115.00,-194.40,-54.00,-74.55,32.58,134.05,
06/01/2021,01:10:11.43,12.21,-1436.52,500.00,92.32,-157.20,-119.63,-194.40,-54.00,-74.55,32.73,134.05,
06/01/2021,01:10:11.43,23.44,-1463.38,541.02,97.99,-152.93,-116.89,-196.35,-53.10,-72.90,32.44,134.05,
06/01/2021,01:10:11.43,88.87,-1457.52,569.82,97.56,-149.45,-119.02,-196.35,-53.10,-72.90,32.73,134.05,
06/01/2021,01:10:11.44,208.01,-1474.61,585.45,99.09,-136.52,-127.93,-193.80,-53.55,-75.00,32.77,134.05,
06/01/2021,01:10:11.44,270.02,-1478.52,613.77,97.56,-122.50,-137.38,-193.80,-53.55,-75.00,32.63,134.05,
06/01/2021,01:10:11.46,360.84,-1418.46,465.33,86.16,-117.38,-153.72,-193.05,-53.55,-73.65,32.53,134.05,
06/01/2021,01:10:11.46,352.05,-1359.38,396.00,80.43,-133.23,-148.66,-193.05,-53.55,-73.65,32.44,134.05,
06/01/2021,01:10:11.47,304.69,-1303.22,376.46,73.84,-156.71,-138.90,-193.05,-53.55,-73.65,32.73,134.05,
06/01/2021,01:10:11.47,245.12,-1240.72,354.49,68.23,-178.11,-124.09,-193.05,-53.55,-73.65,32.63,134.05,
06/01/2021,01:10:11.49,-208.50,-1022.95,432.13,58.05,-229.39,-82.07,-192.15,-53.25,-77.10,32.63,134.05,
06/01/2021,01:10:11.49,-433.11,-917.97,377.44,61.34,-233.90,-64.33,-190.95,-55.20,-75.60,32.77,134.05,
06/01/2021,01:10:11.50,-530.76,-751.95,272.95,69.09,-227.74,-41.16,-190.95,-55.20,-75.60,32.77,134.05,
06/01/2021,01:10:11.50,-423.83,-517.58,211.43,73.05,-205.43,-25.61,-192.15,-53.70,-78.15,32.39,134.05,
06/01/2021,01:10:11.51,-207.52,-310.06,118.16,72.87,-173.48,-19.27,-192.15,-53.70,-78.15,32.73,134.05,
06/01/2021,01:10:11.52,170.90,-134.77,362.79,61.40,-65.85,-29.82,-189.60,-55.65,-78.60,32.73,134.05,
06/01/2021,01:10:11.53,14.16,-202.64,449.71,69.70,-59.02,-19.51,-189.60,-55.65,-78.60,32.25,134.05,
06/01/2021,01:10:11.53,-167.97,-279.30,393.07,70.73,-75.98,-5.06,-189.30,-57.30,-80.25,32.58,134.05,
06/01/2021,01:10:11.53,-297.85,-318.36,193.85,63.23,-101.46,22.32,-189.30,-57.30,-80.25,32.29,134.05,
06/01/2021,01:10:11.54,-354.98,-359.86,68.36,51.10,-112.13,52.93,-188.40,-57.15,-81.15,32.77,134.05,
06/01/2021,01:10:11.55,-407.23,-458.01,-93.26,39.63,-56.22,117.56,-189.15,-59.10,-80.70,32.97,134.05,
06/01/2021,01:10:11.56,-546.39,-454.59,-137.21,37.13,-39.57,121.40,-187.65,-59.55,-80.70,32.58,134.05,
06/01/2021,01:10:11.56,-617.68,-425.78,-166.02,34.39,-23.05,131.71,-187.65,-59.55,-80.70,32.44,134.05,
06/01/2021,01:10:11.57,-570.31,-401.86,-149.41,31.95,-12.80,136.52,-187.65,-59.55,-80.70,32.73,134.05,
06/01/2021,01:10:11.57,-462.89,-406.25,-146.97,28.72,13.60,138.54,-187.65,-59.55,-80.70,32.63,134.05,
06/01/2021,01:10:11.59,-247.56,-479.49,-27.34,15.30,81.89,150.43,-185.70,-62.70,-81.60,32.39,134.05,
06/01/2021,01:10:11.59,-197.27,-505.86,-24.90,13.05,86.65,162.32,-185.70,-62.70,-81.60,32.77,134.05,
06/01/2021,01:10:11.60,-157.71,-531.74,17.58,5.30,95.49,180.79,-185.70,-62.70,-81.60,32.73,134.05,
06/01/2021,01:10:11.60,-118.65,-578.61,27.34,4.45,99.09,192.74,-185.25,-63.60,-82.05,32.58,134.05,
06/01/2021,01:10:11.61,-96.19,-595.70,21.00,1.16,98.84,207.44,-185.25,-63.60,-82.05,32.73,134.05,
06/01/2021,01:10:11.62,-26.86,-724.12,7.32,-8.66,89.39,242.32,-185.40,-67.65,-80.40,32.58,134.05,
06/01/2021,01:10:11.63,32.23,-778.81,1.46,-12.44,84.63,255.24,-185.40,-67.65,-80.40,32.53,134.05,
06/01/2021,01:10:11.63,71.78,-833.01,15.14,-15.79,78.72,262.32,-184.50,-68.25,-80.85,32.73,134.05,
06/01/2021,01:10:11.63,130.86,-891.11,-8.79,-19.45,71.10,272.62,-184.50,-68.25,-80.85,32.73,134.05,
06/01/2021,01:10:11.64,190.43,-943.36,-27.34,-25.18,65.67,283.11,-184.50,-68.25,-80.85,32.58,134.05,
06/01/2021,01:10:11.64,255.37,-992.68,-38.57,-28.23,55.79,291.10,-184.50,-68.25,-80.85,32.63,134.05,
06/01/2021,01:10:11.66,375.00,-1077.64,-37.11,-40.12,26.71,306.04,-180.60,-69.60,-79.65,32.63,134.05,
06/01/2021,01:10:11.66,357.42,-1100.59,-34.67,-40.24,21.89,311.22,-180.60,-69.60,-79.65,32.63,134.05,
06/01/2021,01:10:11.67,357.42,-1128.91,-15.14,-42.62,15.98,314.27,-180.60,-69.60,-79.65,32.39,134.05,
06/01/2021,01:10:11.67,336.91,-1161.13,5.86,-44.57,8.72,321.40,-177.90,-71.25,-79.80,32.58,134.05,
06/01/2021,01:10:11.68,345.70,-1183.59,21.97,-47.38,8.48,325.12,-177.90,-71.25,-79.80,32.92,134.05,
06/01/2021,01:10:11.69,287.60,-1295.90,53.71,-53.05,7.20,334.76,-176.70,-70.95,-79.80,32.73,134.05,
06/01/2021,01:10:11.70,255.86,-1335.45,87.40,-53.66,10.37,336.46,-176.70,-70.95,-79.80,32.63,134.05,
06/01/2021,01:10:11.70,213.38,-1393.07,109.86,-57.74,19.51,339.33,-172.80,-72.30,-82.95,32.73,134.05,
06/01/2021,01:10:11.71,213.38,-1482.42,130.37,-56.46,28.54,342.74,-172.80,-72.30,-82.95,32.73,134.05,
06/01/2021,01:10:11.71,222.66,-1551.76,171.88,-61.65,31.77,341.59,-169.35,-72.75,-82.80,32.44,134.05,
06/01/2021,01:10:11.73,297.85,-1680.66,231.45,-70.30,51.59,346.46,-167.85,-73.65,-84.60,32.58,134.05,
06/01/2021,01:10:11.73,331.05,-1716.31,238.28,-74.88,56.46,343.54,-168.30,-73.65,-82.35,32.73,134.05,
06/01/2021,01:10:11.74,375.98,-1740.23,255.86,-74.88,57.50,342.32,-168.30,-73.65,-82.35,32.58,134.05,
06/01/2021,01:10:11.74,440.43,-1795.90,276.37,-75.24,64.51,341.89,-168.30,-73.65,-82.35,32.73,134.05,
06/01/2021,01:10:11.74,515.62,-1848.14,286.62,-77.44,74.33,340.98,-168.30,-73.65,-82.35,32.77,134.05,
06/01/2021,01:10:11.76,766.60,-1930.18,383.30,-75.85,98.72,319.82,-163.65,-73.05,-84.45,32.58,134.05,
06/01/2021,01:10:11.76,824.22,-1895.51,398.93,-77.93,95.61,311.77,-163.65,-73.05,-84.45,32.63,134.05,
06/01/2021,01:10:11.77,937.01,-1850.10,394.04,-79.63,91.59,301.34,-160.80,-74.70,-86.40,32.77,134.05,
06/01/2021,01:10:11.77,1017.58,-1745.61,468.75,-80.43,82.80,284.63,-160.80,-74.70,-86.40,32.73,134.05,
06/01/2021,01:10:11.78,1097.66,-1647.95,516.60,-78.23,77.26,271.22,-160.80,-74.70,-86.40,32.58,134.05,
06/01/2021,01:10:11.79,1344.73,-1522.95,695.31,-73.17,59.57,226.95,-158.55,-72.00,-87.90,32.58,134.05,
06/01/2021,01:10:11.80,1392.09,-1412.11,811.52,-64.21,60.12,209.09,-158.55,-72.00,-87.90,32.58,134.05,
06/01/2021,01:10:11.80,1400.88,-1263.18,888.18,-58.35,52.44,193.05,-158.10,-71.40,-90.60,32.73,134.05,
06/01/2021,01:10:11.81,1404.30,-1083.98,946.78,-51.22,34.76,176.28,-158.10,-71.40,-90.60,32.53,134.05,
06/01/2021,01:10:11.82,1725.59,-792.48,848.63,-14.82,-32.38,112.99,-158.85,-71.85,-88.35,32.63,134.05,
06/01/2021,01:10:11.83,1790.04,-735.84,803.22,-2.93,-52.20,94.33,-158.85,-71.85,-88.35,32.63,134.05,
06/01/2021,01:10:11.86,1220.70,-904.79,413.57,46.77,-85.12,-55.55,-154.50,-69.30,-89.25,32.82,134.05,
06/01/2021,01:10:11.87,1010.74,-1107.42,-166.02,39.21,-55.85,-93.78,-153.60,-71.10,-86.55,32.73,134.05,
06/01/2021,01:10:11.88,869.14,-1300.78,-567.38,24.76,-40.79,-105.73,-153.60,-71.10,-86.55,32.63,134.05,
06/01/2021,01:10:11.89,-1137.70,-1939.45,-661.62,8.29,-35.18,-97.93,-156.60,-70.65,-87.75,32.63,134.05,
06/01/2021,01:10:11.90,-1567.87,-2064.94,-618.65,23.78,-42.26,-80.49,-156.60,-70.65,-87.75,32.39,134.05,
06/01/2021,01:10:11.90,-1555.18,-2028.32,-534.18,36.95,-12.44,-77.01,-154.65,-71.10,-87.75,32.73,134.05,
06/01/2021,01:10:11.91,-1155.27,-1807.13,-333.50,36.16,54.57,-93.41,-154.65,-71.10,-87.75,32.63,134.05,
06/01/2021,01:10:11.91,-570.31,-1494.63,-41.99,29.02,112.32,-113.84,-154.65,-71.10,-87.75,32.82,134.05,
06/01/2021,01:10:11.94,301.76,-845.21,649.41,61.89,34.45,-121.04,-158.10,-73.80,-86.25,32.73,134.05,
06/01/2021,01:10:11.95,18.55,-779.79,672.85,63.05,23.35,-108.84,-158.10,-73.80,-86.25,32.73,134.05,
06/01/2021,01:10:11.95,-193.85,-686.04,750.98,63.48,17.80,-105.91,-161.70,-71.40,-87.00,32.82,134.05,
06/01/2021,01:10:11.96,-339.84,-615.23,789.06,60.85,24.02,-106.40,-161.70,-71.40,-87.00,32.63,134.05,
06/01/2021,01:10:11.96,-391.60,-628.42,708.98,54.51,36.59,-102.68,-161.70,-71.40,-87.00,32.58,134.05,
06/01/2021,01:10:11.98,187.99,-1000.00,607.42,34.82,47.80,-107.26,-161.70,-73.35,-88.05,32.63,134.05,
06/01/2021,01:10:11.98,361.33,-926.76,627.93,37.93,49.15,-109.33,-161.70,-73.35,-88.05,32.39,134.05,
06/01/2021,01:10:11.99,451.66,-921.39,609.38,37.87,36.40,-105.00,-161.70,-73.35,-88.05,33.06,134.05,
06/01/2021,01:10:11.99,501.46,-962.89,605.47,37.56,13.90,-100.18,-162.30,-73.65,-86.70,32.63,134.05,
06/01/2021,01:10:11.99,523.44,-975.10,467.29,35.43,-15.98,-93.05,-162.30,-73.65,-86.70,32.73,134.05,
06/01/2021,01:10:12.01,432.62,-1021.48,219.24,45.79,-70.79,-68.84,-164.55,-74.40,-86.40,32.58,134.05,
06/01/2021,01:10:12.01,311.04,-1018.55,230.96,47.01,-77.32,-62.68,-164.55,-74.40,-86.40,32.58,134.05,
06/01/2021,01:10:12.02,185.06,-1021.48,228.03,46.46,-77.20,-54.76,-164.55,-74.40,-86.40,32.73,134.05,
06/01/2021,01:10:12.02,79.59,-1010.25,238.77,45.67,-69.88,-46.89,-165.15,-72.30,-85.50,32.63,134.05,
06/01/2021,01:10:12.03,-4.88,-1010.25,230.96,43.23,-62.38,-43.66,-165.15,-72.30,-85.50,32.58,134.05,
06/01/2021,01:10:12.04,-163.57,-1021.00,248.05,38.66,-18.35,-47.68,-164.70,-73.80,-85.50,32.73,134.05,
06/01/2021,01:10:12.05,-173.34,-1013.67,263.18,36.28,-7.20,-52.93,-164.70,-73.80,-85.50,32.44,134.05,
06/01/2021,01:10:12.05,-163.57,-1003.91,266.11,33.72,6.95,-54.09,-164.55,-73.95,-83.85,32.58,134.05,
06/01/2021,01:10:12.06,-118.16,-1003.42,277.34,29.82,17.26,-55.18,-164.55,-73.95,-83.85,32.92,134.05,
06/01/2021,01:10:12.06,-48.83,-997.56,293.46,26.16,25.06,-55.30,-164.40,-73.35,-83.25,32.63,134.05,
06/01/2021,01:10:12.08,172.85,-973.14,372.07,27.26,26.34,-51.77,-165.60,-73.65,-84.60,32.58,134.05,
06/01/2021,01:10:12.08,189.94,-962.89,400.39,27.74,15.00,-51.83,-165.60,-73.65,-84.60,32.29,134.05,
06/01/2021,01:10:12.09,213.38,-945.80,424.32,29.57,5.37,-49.33,-165.60,-73.65,-84.60,32.73,134.05,
06/01/2021,01:10:12.09,221.19,-940.92,457.52,29.70,-3.48,-41.83,-166.35,-73.65,-85.35,32.44,134.05,
06/01/2021,01:10:12.09,223.14,-923.83,475.59,27.80,-17.56,-40.12,-166.35,-73.65,-85.35,32.73,134.05,
06/01/2021,01:10:12.11,162.60,-918.46,397.46,30.18,-45.24,-25.00,-167.70,-74.55,-82.95,32.73,134.05,
06/01/2021,01:10:12.11,133.30,-928.71,357.91,31.34,-49.21,-22.38,-167.70,-74.55,-82.95,32.77,134.05,
06/01/2021,01:10:12.12,101.07,-953.61,345.70,26.16,-48.35,-21.83,-167.70,-74.55,-82.95,32.82,134.05,
06/01/2021,01:10:12.12,76.66,-992.68,325.68,28.96,-45.43,-20.06,-164.70,-73.35,-83.70,32.73,134.05,
06/01/2021,01:10:12.13,49.80,-1000.49,313.48,23.48,-43.54,-20.67,-164.70,-73.35,-83.70,32.77,134.05,
06/01/2021,01:10:12.14,9.28,-1007.81,331.54,23.72,-20.06,-21.28,-166.35,-73.65,-83.40,32.63,134.05,
06/01/2021,01:10:12.15,21.97,-976.07,338.87,19.09,-13.17,-22.13,-166.35,-73.65,-83.40,32.73,134.05,
06/01/2021,01:10:12.15,13.67,-949.71,323.24,17.13,-9.76,-26.22,-164.85,-72.75,-83.10,32.53,134.05,
06/01/2021,01:10:12.16,39.55,-945.80,341.80,15.18,-5.85,-23.41,-164.85,-72.75,-83.10,32.73,134.05,
06/01/2021,01:10:12.16,54.69,-930.18,354.49,17.26,-3.96,-23.41,-166.50,-74.25,-83.70,32.39,134.05,
06/01/2021,01:10:12.18,125.49,-943.85,381.35,15.12,-6.83,-24.33,-167.10,-73.95,-83.40,32.58,134.05,
06/01/2021,01:10:12.18,137.21,-944.82,415.53,15.12,-10.79,-22.38,-167.70,-74.25,-83.70,32.73,134.05,
06/01/2021,01:10:12.19,146.00,-952.64,420.41,16.04,-16.65,-19.76,-167.70,-74.25,-83.70,32.63,134.05,
06/01/2021,01:10:12.19,154.79,-950.68,417.97,16.52,-27.20,-17.56,-166.50,-73.05,-84.00,32.77,134.05,
06/01/2021,01:10:12.20,157.71,-950.20,414.55,15.18,-37.32,-18.54,-166.50,-73.05,-84.00,32.63,134.05,
06/01/2021,01:10:12.21,82.03,-938.48,375.98,21.46,-49.39,-14.21,-165.15,-74.55,-83.25,32.73,134.05,
06/01/2021,01:10:12.21,71.78,-949.22,361.82,21.40,-48.23,-21.71,-165.15,-74.55,-83.25,32.39,134.05,
06/01/2021,01:10:12.22,36.13,-954.59,344.73,21.52,-47.93,-23.96,-165.15,-74.55,-83.25,32.73,134.05,
06/01/2021,01:10:12.22,15.14,-957.03,337.89,21.46,-42.44,-23.48,-166.50,-73.80,-82.50,32.53,134.05,
06/01/2021,01:10:12.23,-9.28,-962.89,341.31,21.71,-37.01,-27.99,-166.50,-73.80,-82.50,32.73,134.05,
06/01/2021,01:10:12.23,-19.04,-953.61,333.98,20.43,-30.61,-25.98,-165.60,-73.95,-82.80,32.82,134.05,
06/01/2021,01:10:12.25,46.88,-962.40,360.35,16.89,-17.32,-38.96,-165.45,-72.30,-83.70,32.58,134.05,
06/01/2021,01:10:12.25,66.41,-946.78,363.77,20.06,-17.68,-43.23,-165.45,-72.30,-83.70,32.73,134.05,
06/01/2021,01:10:12.26,109.86,-953.12,376.95,19.88,-17.20,-40.24,-165.45,-72.30,-83.70,32.73,134.05,
06/01/2021,01:10:12.26,113.28,-946.29,386.23,19.57,-17.99,-43.23,-166.35,-73.95,-82.35,32.73,134.05,
06/01/2021,01:10:12.27,143.55,-944.34,386.72,22.13,-19.51,-44.51,-166.35,-73.95,-82.35,32.44,134.05,
06/01/2021,01:10:12.28,159.18,-928.22,381.35,24.27,-28.05,-48.29,-166.80,-74.70,-82.80,32.53,134.05,
06/01/2021,01:10:12.29,141.11,-935.55,390.62,24.45,-28.29,-46.40,-166.80,-74.70,-82.80,32.73,134.05,
06/01/2021,01:10:12.29,145.02,-949.22,364.26,25.00,-26.65,-48.35,-166.20,-75.00,-83.25,32.73,134.05,
06/01/2021,01:10:12.30,136.23,-959.96,368.16,25.55,-28.29,-47.87,-166.20,-75.00,-83.25,32.77,134.05,
06/01/2021,01:10:12.30,123.05,-965.33,377.44,25.49,-26.65,-50.18,-166.20,-75.00,-83.25,32.73,134.05,
06/01/2021,01:10:12.32,145.02,-959.47,390.62,26.10,-25.73,-57.62,-168.75,-75.00,-82.95,32.58,134.05,
06/01/2021,01:10:12.32,151.86,-962.89,396.00,24.27,-24.51,-55.30,-168.75,-75.00,-82.95,32.53,134.05,
06/01/2021,01:10:12.32,160.16,-969.73,394.04,23.96,-22.38,-57.26,-168.75,-75.30,-83.25,32.44,134.05,
06/01/2021,01:10:12.33,169.92,-967.77,402.83,24.21,-22.99,-57.87,-168.75,-75.30,-83.25,32.58,134.05,
06/01/2021,01:10:12.33,187.99,-977.05,400.39,25.67,-26.10,-57.68,-167.55,-73.95,-82.80,32.63,134.05,
06/01/2021,01:10:12.40,244.14,-1010.74,402.34,18.48,-33.17,-61.34,-169.35,-74.40,-82.05,32.58,134.05,
06/01/2021,01:10:12.41,270.02,-1014.65,380.37,18.78,-31.95,-62.13,-169.35,-73.95,-81.30,32.77,134.05,
06/01/2021,01:10:12.41,261.23,-1029.30,374.02,15.79,-36.59,-66.22,-170.10,-74.40,-82.35,32.44,134.05,
06/01/2021,01:10:12.42,264.16,-1054.20,383.30,16.89,-36.16,-66.04,-170.10,-74.40,-82.35,32.82,134.05,
06/01/2021,01:10:12.42,248.54,-1048.83,374.02,17.01,-36.04,-68.90,-170.10,-74.40,-82.35,32.44,134.05,
06/01/2021,01:10:12.46,263.67,-1087.40,377.44,17.44,-28.90,-87.99,-172.35,-73.65,-79.50,32.73,134.05,
06/01/2021,01:10:12.47,270.02,-1084.96,386.72,16.59,-27.99,-91.52,-172.35,-73.65,-79.50,32.73,134.05,
06/01/2021,01:10:12.47,264.16,-1095.70,396.97,17.68,-32.32,-95.24,-172.35,-73.65,-79.50,32.58,134.05,
06/01/2021,01:10:12.48,267.58,-1096.19,398.93,17.07,-35.98,-97.44,-172.35,-73.65,-79.50,32.73,134.05,
06/01/2021,01:10:12.48,275.88,-1107.42,412.11,17.68,-41.65,-101.46,-172.35,-73.65,-79.50,32.73,134.05,
06/01/2021,01:10:12.50,255.86,-1169.92,418.95,20.73,-52.13,-108.23,-173.40,-74.70,-82.05,32.77,134.05,
06/01/2021,01:10:12.50,250.49,-1184.08,389.16,18.41,-54.45,-112.99,-173.40,-74.70,-82.05,32.58,134.05,
06/01/2021,01:10:12.50,238.77,-1222.66,389.16,19.27,-54.88,-114.02,-170.70,-74.25,-81.45,32.58,134.05,
06/01/2021,01:10:12.51,218.26,-1276.37,390.14,19.76,-53.41,-119.02,-170.70,-74.25,-81.45,32.73,134.05,
06/01/2021,01:10:12.52,166.50,-1401.37,401.37,16.22,-50.06,-125.06,-172.35,-73.20,-82.05,32.44,134.05,
06/01/2021,01:10:12.53,187.99,-1387.70,378.42,16.59,-51.16,-125.73,-172.35,-73.20,-82.05,32.39,134.05,
06/01/2021,01:10:12.53,223.63,-1376.95,347.66,15.79,-53.48,-128.05,-174.75,-71.10,-81.90,32.73,134.05,
06/01/2021,01:10:12.54,246.09,-1371.09,315.43,17.99,-60.49,-130.98,-174.75,-71.10,-81.90,32.73,134.05,
06/01/2021,01:10:12.54,250.98,-1360.35,325.68,19.27,-72.26,-130.00,-174.75,-71.10,-81.90,32.73,134.05,
06/01/2021,01:10:12.56,-22.46,-1444.34,416.50,38.35,-116.89,-132.26,-175.80,-70.35,-82.50,32.63,134.05,
06/01/2021,01:10:12.57,-118.16,-1431.15,444.82,41.65,-115.79,-135.06,-175.80,-70.35,-82.50,32.39,134.05,
06/01/2021,01:10:12.57,-205.57,-1430.18,458.50,48.29,-115.67,-131.59,-174.00,-71.10,-82.95,32.73,134.05,
06/01/2021,01:10:12.58,-231.45,-1434.08,474.12,51.10,-109.88,-131.40,-174.00,-71.10,-82.95,32.73,134.05,
06/01/2021,01:10:12.58,-173.34,-1429.69,447.75,55.06,-96.46,-137.68,-173.40,-70.05,-83.40,32.63,134.05,
06/01/2021,01:10:12.60,353.52,-1575.20,468.26,51.04,-28.78,-181.34,-173.40,-70.05,-83.40,32.58,134.05,
06/01/2021,01:10:12.60,495.61,-1616.70,487.30,51.95,-13.41,-199.33,-176.70,-70.05,-84.15,32.82,134.05,
06/01/2021,01:10:12.61,542.48,-1643.55,522.95,46.89,-5.37,-206.95,-176.70,-70.05,-84.15,32.73,134.05,
06/01/2021,01:10:12.61,518.07,-1624.51,569.82,48.48,-3.11,-209.33,-176.40,-69.75,-83.10,32.73,134.05,
06/01/2021,01:10:12.62,482.42,-1610.35,613.28,48.11,-13.23,-207.74,-176.40,-69.75,-83.10,32.44,134.05,
06/01/2021,01:10:12.63,273.93,-1442.87,522.95,35.18,-65.73,-182.50,-176.70,-69.00,-82.80,32.39,134.05,
06/01/2021,01:10:12.64,190.92,-1379.39,460.94,33.23,-78.17,-173.41,-178.35,-68.70,-82.50,32.73,134.05,
06/01/2021,01:10:12.64,54.20,-1332.03,421.88,29.45,-84.09,-160.43,-178.35,-68.70,-82.50,32.63,134.05,
06/01/2021,01:10:12.64,-68.36,-1280.76,383.79,23.78,-79.82,-149.21,-178.35,-68.70,-82.50,32.73,134.05,
06/01/2021,01:10:12.65,-246.09,-1225.59,369.63,16.59,-76.22,-131.52,-178.35,-68.70,-82.50,32.58,134.05,
06/01/2021,01:10:12.66,-298.34,-697.75,472.66,20.73,-53.23,-82.01,-179.10,-66.45,-82.50,32.58,134.05,
06/01/2021,01:10:12.67,-103.03,-452.15,500.00,27.32,-32.80,-76.89,-179.10,-66.45,-82.50,32.58,134.05,
06/01/2021,01:10:12.67,105.96,-245.12,470.21,25.30,-14.94,-75.12,-178.20,-65.10,-83.85,32.73,134.05,
06/01/2021,01:10:12.68,228.03,-153.32,357.91,18.17,-6.16,-80.98,-178.20,-65.10,-83.85,32.58,134.05,
06/01/2021,01:10:12.68,150.88,-285.16,0.98,-3.35,-9.76,-77.20,-178.20,-65.10,-82.80,32.58,134.05,
06/01/2021,01:10:12.70,238.28,-405.27,333.50,8.90,-44.76,-11.95,-178.20,-65.10,-82.80,32.58,134.05,
06/01/2021,01:10:12.70,182.62,-363.77,269.53,-0.49,-56.10,3.78,-179.40,-65.10,-83.10,32.39,134.05,
06/01/2021,01:10:12.71,39.55,-361.33,173.34,-12.32,-72.74,22.68,-179.40,-65.10,-83.10,32.63,134.05,
06/01/2021,01:10:12.71,-135.74,-356.45,167.48,-21.59,-82.38,43.17,-179.40,-65.10,-83.10,32.53,134.05,
06/01/2021,01:10:12.72,-270.02,-351.07,253.91,-21.52,-90.49,65.91,-179.40,-65.10,-83.10,32.58,134.05,
06/01/2021,01:10:12.73,-448.24,-299.32,136.72,-19.39,-59.33,100.91,-176.55,-65.70,-84.75,32.77,134.05,
06/01/2021,01:10:12.74,-443.36,-297.85,179.20,-23.05,-41.46,105.67,-178.05,-65.25,-84.00,32.77,134.05,
06/01/2021,01:10:12.74,-407.23,-287.60,245.12,-25.91,-22.26,108.54,-178.05,-65.25,-84.00,32.58,134.05,
06/01/2021,01:10:12.74,-394.04,-296.39,259.28,-24.70,4.82,114.57,-176.55,-66.00,-85.05,32.92,134.05,
06/01/2021,01:10:12.75,-351.56,-328.61,252.93,-26.77,23.66,123.41,-176.55,-66.00,-85.05,32.58,134.05,
06/01/2021,01:10:12.76,-49.80,-433.59,295.41,-35.91,51.89,164.02,-174.30,-65.25,-85.05,32.58,134.05,
06/01/2021,01:10:12.77,10.25,-460.45,293.46,-36.46,51.95,173.35,-174.30,-65.25,-85.05,32.73,134.05,
06/01/2021,01:10:12.77,79.59,-483.40,301.27,-34.57,55.06,180.91,-175.20,-66.60,-83.10,32.63,134.05,
06/01/2021,01:10:12.78,117.68,-494.14,311.52,-36.16,53.78,191.22,-175.20,-66.60,-83.10,32.73,134.05,
06/01/2021,01:10:12.78,157.71,-509.28,335.94,-34.33,53.11,201.16,-174.75,-64.95,-83.25,32.73,134.05,
06/01/2021,01:10:12.80,257.81,-636.72,317.87,-35.85,50.24,226.52,-174.00,-66.45,-82.50,32.63,134.05,
06/01/2021,01:10:12.80,281.74,-656.74,299.32,-36.83,49.88,228.41,-174.60,-66.60,-82.05,32.73,134.05,
06/01/2021,01:10:12.81,330.57,-715.33,299.80,-34.51,50.98,235.91,-174.60,-66.60,-82.05,32.58,134.05,
06/01/2021,01:10:12.81,387.70,-764.65,318.36,-39.33,44.57,239.94,-174.60,-66.60,-82.05,32.63,134.05,
06/01/2021,01:10:12.82,488.28,-808.59,332.52,-39.39,41.40,246.28,-174.60,-66.60,-82.05,32.58,134.05,
06/01/2021,01:10:12.83,693.36,-863.28,405.76,-36.22,20.61,250.49,-172.35,-68.25,-82.05,32.63,134.05,
06/01/2021,01:10:12.84,709.96,-866.70,408.69,-35.67,11.71,253.54,-171.15,-67.80,-80.55,32.82,134.05,
06/01/2021,01:10:12.84,691.41,-864.75,416.50,-35.49,10.73,251.16,-171.15,-67.80,-80.55,32.73,134.05,
06/01/2021,01:10:12.84,652.34,-872.56,400.88,-32.26,2.62,250.61,-171.00,-67.95,-81.15,32.53,134.05,
06/01/2021,01:10:12.85,617.19,-914.55,388.18,-30.98,0.79,252.74,-171.00,-67.95,-81.15,32.58,134.05,
06/01/2021,01:10:12.91,444.34,-1088.38,329.10,-45.55,114.02,229.15,-168.45,-70.35,-79.65,32.73,134.05,
06/01/2021,01:10:12.93,472.17,-1085.45,369.63,-52.07,127.56,222.32,-167.55,-71.70,-78.30,32.73,134.04,
06/01/2021,01:10:12.93,492.19,-1092.29,385.25,-53.54,129.33,222.80,-167.55,-71.70,-78.30,32.58,134.04,
06/01/2021,01:10:12.94,509.28,-1101.56,414.06,-53.66,128.72,221.40,-167.55,-71.70,-78.30,32.39,134.05,
06/01/2021,01:10:12.94,503.42,-1104.49,424.32,-56.65,126.95,219.27,-167.55,-71.70,-78.30,32.73,134.05,
06/01/2021,01:10:12.96,490.72,-1122.56,466.80,-60.61,109.63,214.33,-166.35,-72.75,-79.05,32.73,134.04,
06/01/2021,01:10:12.96,527.34,-1125.49,459.47,-61.95,98.54,216.95,-166.35,-72.75,-79.05,32.39,134.04,
06/01/2021,01:10:12.97,617.19,-1149.41,437.50,-69.33,77.56,216.65,-166.05,-71.70,-78.30,32.39,134.05,
06/01/2021,01:10:12.97,696.29,-1137.21,465.82,-69.82,68.17,215.12,-166.05,-71.70,-78.30,32.97,134.05,
06/01/2021,01:10:12.97,713.87,-1135.74,492.19,-70.91,58.17,210.00,-164.40,-70.65,-78.15,32.73,134.05,
06/01/2021,01:10:12.99,731.93,-1139.65,512.70,-69.21,38.05,202.74,-164.40,-70.65,-78.15,32.58,134.05,
06/01/2021,01:10:12.99,752.44,-1162.60,502.44,-65.91,28.84,198.35,-164.10,-72.45,-79.05,32.73,134.05,
06/01/2021,01:10:13.00,773.93,-1164.06,481.45,-65.79,24.27,195.43,-164.10,-72.45,-79.05,32.58,134.05,
06/01/2021,01:10:13.00,784.18,-1176.76,478.52,-65.06,14.70,194.51,-161.40,-70.35,-78.60,32.73,134.05,
06/01/2021,01:10:13.01,771.97,-1187.01,517.58,-62.50,0.12,193.23,-161.40,-70.35,-78.60,32.39,134.05,
06/01/2021,01:10:13.02,812.99,-1048.34,551.27,-47.13,-31.16,181.46,-161.25,-72.00,-79.50,32.53,134.05,
06/01/2021,01:10:13.03,823.24,-998.54,552.73,-39.88,-36.89,174.09,-161.25,-72.00,-79.50,32.73,134.05,
06/01/2021,01:10:13.03,845.70,-970.21,534.67,-34.39,-39.39,168.23,-161.25,-72.00,-79.50,32.77,134.05,
06/01/2021,01:10:13.04,884.28,-981.45,503.42,-29.21,-38.96,156.71,-161.25,-72.00,-79.50,32.73,134.05,
06/01/2021,01:10:13.04,951.66,-1000.00,469.73,-21.16,-36.34,143.60,-161.25,-72.00,-79.50,32.53,134.05,
06/01/2021,01:10:13.06,1066.41,-976.07,356.45,-6.77,-27.26,88.78,-157.80,-71.70,-79.80,32.58,134.05,
06/01/2021,01:10:13.06,1068.36,-953.61,352.05,-3.35,-18.78,73.84,-157.80,-71.70,-79.80,32.58,134.05,
06/01/2021,01:10:13.07,1048.83,-940.92,357.42,4.02,-8.84,50.43,-156.15,-69.90,-79.65,32.63,134.05,
06/01/2021,01:10:13.07,1032.71,-902.34,359.86,6.77,4.76,31.59,-156.15,-69.90,-79.65,32.63,134.05,
06/01/2021,01:10:13.08,1027.34,-865.23,387.21,9.02,18.48,14.63,-156.90,-68.70,-81.90,32.92,134.05,
06/01/2021,01:10:13.09,1072.75,-791.50,472.66,22.74,52.62,-45.85,-156.90,-68.70,-81.90,32.73,134.05,
06/01/2021,01:10:13.09,1042.97,-787.11,494.63,26.71,60.30,-62.87,-159.60,-71.40,-78.90,32.73,134.05,
06/01/2021,01:10:13.10,1012.70,-792.48,488.77,34.15,64.45,-76.04,-159.60,-71.40,-78.90,32.58,134.05,
06/01/2021,01:10:13.10,946.29,-770.51,490.72,35.12,72.80,-91.71,-159.60,-71.40,-78.90,32.63,134.05,
06/01/2021,01:10:13.11,812.01,-811.04,390.62,36.34,71.52,-105.24,-159.60,-71.40,-78.90,32.73,134.05,
06/01/2021,01:10:13.12,-169.43,-1527.83,-868.65,-5.67,69.88,-113.66,-159.30,-71.25,-79.50,32.73,134.05,
06/01/2021,01:10:13.13,-1001.46,-1944.82,-881.35,-32.74,46.10,-97.07,-159.30,-71.25,-79.50,32.73,134.05,
06/01/2021,01:10:13.13,-2071.29,-2425.78,-702.15,-26.22,2.20,-66.16,-159.90,-71.25,-79.50,32.73,134.05,
06/01/2021,01:10:13.14,-2589.36,-2691.41,-597.17,14.21,-12.07,-45.12,-159.90,-70.65,-79.20,32.58,134.05,
06/01/2021,01:10:13.14,-2365.72,-2675.29,-562.50,37.26,21.65,-51.10,-159.90,-70.65,-79.20,32.63,134.05,
06/01/2021,01:10:13.16,1863.28,-1409.18,493.16,25.73,268.48,-161.04,-160.20,-69.60,-81.45,32.58,134.05,
06/01/2021,01:10:13.17,2281.25,-1523.93,703.61,14.09,246.77,-199.88,-162.30,-72.00,-78.75,32.92,134.05,
06/01/2021,01:10:13.17,1724.12,-1340.33,970.70,29.57,149.39,-210.85,-162.30,-72.00,-78.75,32.58,134.05,
06/01/2021,01:10:13.18,1045.90,-1017.09,907.23,77.07,25.37,-184.57,-162.30,-70.95,-80.85,32.82,134.05,
06/01/2021,01:10:13.18,608.40,-810.55,608.89,112.56,-46.34,-152.38,-162.30,-70.95,-80.85,32.58,134.05,
06/01/2021,01:10:13.20,-550.29,-807.13,756.35,111.46,16.16,-153.54,-166.05,-70.50,-77.55,32.58,134.05,
06/01/2021,01:10:13.20,-651.37,-725.10,654.79,98.66,44.09,-163.23,-166.05,-70.50,-77.55,32.73,134.05,
06/01/2021,01:10:13.20,-587.40,-803.22,519.04,74.94,67.93,-168.48,-166.05,-70.50,-77.55,32.53,134.05,
06/01/2021,01:10:13.21,-294.92,-859.38,616.21,63.11,76.89,-162.93,-166.05,-70.50,-77.55,32.58,134.05,
06/01/2021,01:10:13.21,103.03,-804.20,681.15,60.49,80.49,-158.72,-168.60,-70.50,-77.55,32.58,134.05,
06/01/2021,01:10:13.23,863.77,-864.26,421.88,48.54,31.77,-128.05,-168.60,-70.95,-75.75,32.63,134.05,
06/01/2021,01:10:13.23,958.50,-867.19,347.17,49.63,8.05,-120.43,-168.60,-70.95,-75.75,32.63,134.05,
06/01/2021,01:10:13.24,885.25,-888.67,277.83,55.61,-10.85,-104.76,-168.60,-72.00,-75.75,32.44,134.05,
06/01/2021,01:10:13.24,692.87,-963.87,280.27,58.72,-29.21,-92.38,-168.60,-72.00,-75.75,32.63,134.05,
06/01/2021,01:10:13.25,490.23,-1073.73,256.35,62.62,-41.28,-78.84,-168.60,-71.25,-76.95,32.44,134.05,
06/01/2021,01:10:13.26,17.09,-1152.34,367.19,53.11,-24.45,-67.38,-168.60,-71.25,-76.95,32.58,134.05,
06/01/2021,01:10:13.27,-89.84,-1077.64,337.40,47.80,-12.07,-66.22,-170.40,-72.45,-75.00,32.73,134.05,
06/01/2021,01:10:13.27,-108.40,-974.61,327.64,43.60,4.15,-65.67,-170.40,-72.45,-75.00,32.58,134.05,
06/01/2021,01:10:13.28,-69.82,-902.34,341.31,38.29,17.38,-63.84,-170.10,-69.75,-74.70,32.73,134.05,
06/01/2021,01:10:13.28,-3.42,-878.42,377.44,35.49,26.40,-64.15,-170.10,-69.75,-74.70,32.58,134.05,
06/01/2021,01:10:13.30,246.58,-930.18,440.43,26.77,20.98,-60.06,-172.35,-70.95,-75.00,32.58,134.05,
06/01/2021,01:10:13.30,283.69,-958.01,437.01,29.57,12.26,-54.63,-172.35,-70.95,-75.00,32.82,134.05,
06/01/2021,01:10:13.30,302.73,-965.33,414.06,31.40,0.61,-53.54,-171.15,-71.25,-74.40,32.73,134.05,
06/01/2021,01:10:13.31,293.46,-956.05,394.53,29.88,-6.40,-46.28,-171.15,-71.25,-74.40,32.73,134.05,
06/01/2021,01:10:13.31,275.39,-941.89,369.14,31.46,-16.04,-45.24,-170.70,-69.60,-73.35,32.73,134.05,
06/01/2021,01:10:13.33,160.64,-902.83,348.63,32.74,-28.54,-36.10,-170.70,-69.60,-73.35,32.63,134.05,
06/01/2021,01:10:13.33,134.77,-919.43,345.70,29.76,-29.76,-34.33,-170.70,-69.60,-73.35,32.92,134.05,
06/01/2021,01:10:13.34,88.38,-940.43,334.47,29.94,-22.13,-31.10,-173.55,-71.40,-74.55,32.58,134.05,
06/01/2021,01:10:13.34,69.82,-957.03,345.21,27.87,-17.68,-31.89,-173.55,-71.40,-74.55,32.63,134.05,
06/01/2021,01:10:13.35,72.75,-967.77,375.00,23.35,-11.40,-32.38,-172.35,-70.95,-74.40,32.58,134.05,
06/01/2021,01:10:13.36,174.32,-936.52,444.82,20.43,-1.77,-30.61,-172.35,-70.50,-73.95,32.77,134.05,
06/01/2021,01:10:13.37,199.22,-925.78,450.20,18.05,-6.04,-30.98,-171.75,-70.35,-74.10,32.44,134.05,
06/01/2021,01:10:13.42,148.93,-941.41,395.02,12.87,-19.09,-17.07,-174.15,-70.95,-72.45,32.39,134.04,
06/01/2021,01:10:13.43,156.74,-952.64,424.80,15.30,-18.41,-19.70,-174.15,-70.95,-72.45,32.58,134.04,
06/01/2021,01:10:13.44,174.32,-924.32,412.11,14.39,-21.10,-21.65,-172.05,-71.10,-74.10,32.73,134.04,
06/01/2021,01:10:13.45,183.59,-915.53,411.13,14.15,-22.80,-22.07,-171.60,-70.50,-75.00,32.77,134.04,
06/01/2021,01:10:13.46,184.08,-899.41,408.20,14.27,-27.44,-24.39,-173.85,-71.25,-72.90,32.73,134.04,
06/01/2021,01:10:13.46,176.76,-910.16,402.34,16.22,-25.49,-23.23,-173.85,-71.25,-72.90,32.58,134.04,
06/01/2021,01:10:13.47,180.18,-914.55,406.25,16.28,-26.16,-22.56,-173.10,-70.05,-73.95,32.73,134.04,
06/01/2021,01:10:13.47,175.29,-936.04,401.37,16.59,-25.67,-23.17,-173.10,-70.05,-73.95,32.73,134.05,
06/01/2021,01:10:13.49,184.57,-934.57,404.30,15.85,-25.67,-23.78,-171.90,-68.25,-74.40,32.63,134.04,
06/01/2021,01:10:13.49,192.38,-938.48,388.18,18.35,-24.21,-25.06,-171.90,-68.25,-74.40,32.73,134.04,
06/01/2021,01:10:13.49,208.98,-927.25,389.16,18.17,-25.55,-25.24,-171.90,-68.25,-74.40,32.44,134.04,
06/01/2021,01:10:13.50,210.94,-921.88,388.67,17.38,-26.34,-28.60,-171.90,-68.25,-74.40,32.63,134.05,
06/01/2021,01:10:13.50,210.45,-944.34,391.60,19.09,-24.51,-25.91,-172.65,-70.05,-75.45,32.58,134.05,
06/01/2021,01:10:13.52,225.59,-943.36,379.88,16.83,-21.71,-29.76,-173.25,-70.35,-72.75,32.77,134.04,
06/01/2021,01:10:13.52,236.82,-949.71,370.12,16.83,-22.74,-28.96,-173.25,-70.35,-72.75,32.77,134.05,
06/01/2021,01:10:13.53,220.70,-952.15,385.25,17.07,-21.40,-27.20,-173.55,-70.65,-74.10,32.58,134.05,
06/01/2021,01:10:13.53,224.61,-942.38,391.11,19.27,-24.63,-25.43,-173.55,-70.65,-74.10,32.63,134.05,
06/01/2021,01:10:13.54,234.86,-941.89,390.14,17.20,-20.00,-27.80,-173.25,-68.70,-74.10,32.39,134.05,
06/01/2021,01:10:13.55,251.46,-953.61,430.66,20.61,-26.04,-29.76,-173.25,-68.70,-74.10,32.58,134.05,
06/01/2021,01:10:13.56,269.53,-946.29,429.20,17.99,-26.04,-29.27,-173.85,-70.95,-72.45,32.63,134.05,
06/01/2021,01:10:13.56,263.18,-969.73,436.04,18.66,-29.27,-29.27,-173.85,-70.95,-72.45,32.73,134.05,
06/01/2021,01:10:13.57,268.55,-964.84,457.03,21.71,-31.16,-29.45,-173.25,-68.40,-73.35,32.58,134.05,
06/01/2021,01:10:13.57,250.98,-973.14,432.13,20.73,-34.45,-27.80,-173.25,-68.40,-73.35,32.44,134.05,
06/01/2021,01:10:13.59,223.63,-992.68,410.64,25.37,-40.67,-33.41,-173.10,-69.00,-73.65,32.63,134.05,
06/01/2021,01:10:13.59,211.43,-1000.49,401.86,24.82,-41.65,-35.37,-173.10,-69.00,-73.65,32.73,134.05,
06/01/2021,01:10:13.59,217.77,-1005.86,399.90,23.84,-40.43,-39.63,-173.10,-69.00,-73.65,32.73,134.05,
06/01/2021,01:10:13.60,185.06,-1008.79,386.23,24.94,-40.12,-44.45,-173.10,-69.00,-73.65,32.39,134.05,
06/01/2021,01:10:13.60,181.64,-1003.42,386.23,23.29,-40.49,-42.20,-173.85,-69.00,-74.40,32.73,134.05,
06/01/2021,01:10:13.62,198.73,-1005.86,394.53,25.73,-33.78,-53.66,-174.30,-68.40,-73.80,32.73,134.05,
06/01/2021,01:10:13.62,198.73,-1006.35,375.00,27.01,-36.65,-60.30,-174.30,-68.40,-73.80,32.77,134.05,
06/01/2021,01:10:13.63,194.82,-1019.04,386.23,25.24,-32.87,-60.73,-173.25,-69.60,-72.00,32.73,134.05,
06/01/2021,01:10:13.63,217.77,-1023.93,390.14,25.67,-30.85,-65.67,-173.25,-69.60,-72.00,32.53,134.05,
06/01/2021,01:10:13.64,232.42,-1027.34,386.72,25.85,-30.24,-66.40,-173.55,-67.95,-73.80,32.77,134.05,
06/01/2021,01:10:13.65,270.02,-1065.43,397.95,28.05,-31.71,-74.02,-173.55,-67.95,-73.80,32.63,134.05,
06/01/2021,01:10:13.66,267.09,-1040.04,412.11,27.07,-32.13,-79.45,-175.80,-69.15,-72.75,32.73,134.05,
06/01/2021,01:10:13.66,268.07,-1050.29,425.29,28.35,-32.68,-78.48,-175.80,-69.15,-72.75,32.73,134.05,
06/01/2021,01:10:13.67,264.16,-1041.02,416.02,29.15,-34.51,-84.51,-174.15,-68.55,-73.65,32.73,134.05,
06/01/2021,01:10:13.67,253.42,-1045.41,416.02,28.72,-34.70,-87.87,-174.15,-68.55,-73.65,32.82,134.05,
06/01/2021,01:10:13.69,283.69,-1051.76,429.20,31.40,-36.83,-94.15,-175.65,-67.35,-72.45,32.58,134.05,
06/01/2021,01:10:13.69,291.99,-1060.06,432.62,32.32,-37.80,-93.54,-175.65,-67.35,-72.45,32.58,134.05,
06/01/2021,01:10:13.70,291.99,-1087.89,445.80,31.83,-38.41,-97.01,-175.65,-67.80,-73.65,32.63,134.05,
06/01/2021,01:10:13.70,323.73,-1117.19,462.89,34.02,-41.46,-100.61,-175.65,-67.80,-73.65,32.44,134.05,
06/01/2021,01:10:13.71,333.50,-1129.88,464.84,32.87,-45.85,-103.23,-177.15,-68.55,-73.65,32.58,134.05,
06/01/2021,01:10:13.72,311.52,-1275.88,531.25,34.57,-58.05,-104.70,-177.15,-68.55,-73.65,32.58,134.05,
06/01/2021,01:10:13.72,289.55,-1295.90,537.60,33.35,-58.84,-106.95,-177.15,-68.55,-73.65,32.39,134.05,
06/01/2021,01:10:13.73,258.30,-1306.15,530.76,35.98,-58.35,-105.91,-176.70,-67.05,-73.95,32.63,134.05,
06/01/2021,01:10:13.73,245.12,-1290.04,508.30,36.65,-66.52,-108.96,-176.70,-67.05,-73.95,32.63,134.05,
06/01/2021,01:10:13.74,250.98,-1289.06,470.21,41.95,-72.26,-104.57,-176.55,-66.90,-74.55,32.73,134.05,
06/01/2021,01:10:13.76,212.89,-1340.33,403.32,49.21,-106.52,-99.88,-177.90,-67.35,-72.45,32.73,134.05,
06/01/2021,01:10:13.76,191.89,-1381.35,396.00,53.05,-113.48,-94.15,-177.90,-67.35,-72.45,32.73,134.05,
06/01/2021,01:10:13.77,148.44,-1427.25,400.39,55.73,-119.02,-101.16,-177.90,-67.35,-72.45,32.73,134.05,
06/01/2021,01:10:13.77,117.19,-1458.98,422.36,60.30,-129.63,-98.48,-177.90,-67.35,-72.45,32.73,134.05,
06/01/2021,01:10:13.78,19.53,-1471.19,426.27,62.38,-134.02,-99.63,-176.55,-66.45,-74.55,32.77,134.05,
06/01/2021,01:10:13.79,116.21,-1511.72,437.99,72.62,-124.88,-117.07,-177.45,-64.65,-73.95,32.73,134.05,
06/01/2021,01:10:13.80,144.04,-1506.84,492.19,73.66,-120.12,-120.85,-179.10,-65.25,-74.85,32.77,134.05,
06/01/2021,01:10:13.80,124.02,-1501.46,533.20,79.88,-116.65,-123.90,-179.10,-65.25,-74.85,32.39,134.05,
06/01/2021,01:10:13.81,193.36,-1521.48,577.15,80.67,-112.07,-127.38,-177.90,-65.85,-75.75,32.73,134.05,
06/01/2021,01:10:13.81,288.57,-1514.65,610.84,84.21,-100.73,-132.74,-177.90,-65.85,-75.75,32.73,134.05,
06/01/2021,01:10:13.83,363.77,-1493.65,619.14,82.07,-88.11,-152.56,-177.15,-65.10,-74.40,32.63,134.05,
06/01/2021,01:10:13.83,356.45,-1459.96,601.07,81.59,-89.76,-147.32,-177.15,-65.10,-74.40,32.58,134.05,
06/01/2021,01:10:13.83,358.89,-1355.96,573.24,80.55,-101.89,-145.30,-177.15,-65.10,-74.40,32.63,134.05,
06/01/2021,01:10:13.84,373.05,-1271.00,486.33,74.94,-118.23,-141.59,-178.65,-65.40,-74.40,32.63,134.05,
06/01/2021,01:10:13.84,344.24,-1233.89,503.42,69.45,-140.24,-134.57,-178.65,-65.40,-74.40,32.77,134.05,
06/01/2021,01:10:13.86,109.86,-1071.78,472.66,63.66,-188.29,-104.09,-178.95,-65.40,-74.70,32.58,134.05,
06/01/2021,01:10:13.86,-42.48,-965.33,447.75,60.06,-194.09,-93.17,-178.95,-65.40,-74.70,32.44,134.05,
06/01/2021,01:10:13.87,-195.80,-846.68,410.16,64.94,-199.94,-73.96,-178.95,-65.40,-74.70,32.92,134.05,
06/01/2021,01:10:13.87,-237.30,-664.55,318.36,70.91,-191.71,-58.35,-178.95,-65.40,-74.70,32.73,134.05,
06/01/2021,01:10:13.93,-169.43,-409.67,-175.29,41.52,-47.68,72.38,-176.70,-66.30,-77.25,32.63,134.04,
06/01/2021,01:10:13.95,-312.99,-351.07,46.39,34.70,18.17,127.74,-175.05,-66.90,-76.05,32.73,134.04,
06/01/2021,01:10:13.95,-304.20,-364.75,58.59,32.38,33.35,135.12,-175.05,-66.90,-76.05,32.58,134.04,
06/01/2021,01:10:13.96,-304.20,-381.35,28.81,29.51,49.21,145.49,-174.90,-67.05,-75.00,32.73,134.04,
06/01/2021,01:10:13.96,-291.02,-419.92,0.00,31.77,64.09,157.68,-174.90,-67.05,-75.00,32.73,134.04,
06/01/2021,01:10:13.97,-243.65,-448.24,-22.46,28.96,75.24,170.91,-174.60,-67.05,-76.20,32.77,134.04,
06/01/2021,01:10:13.98,-8.30,-653.81,-4.88,18.78,84.88,201.71,-173.85,-67.35,-74.70,32.73,134.04,
06/01/2021,01:10:13.99,48.34,-687.50,-16.60,14.57,82.68,211.77,-173.85,-67.35,-74.70,32.77,134.04,
06/01/2021,01:10:13.99,110.84,-707.52,-0.98,14.33,80.55,216.22,-173.85,-67.35,-74.70,32.73,134.04,
06/01/2021,01:10:14.00,168.46,-738.28,11.23,8.90,80.55,231.71,-172.05,-68.70,-76.65,32.63,134.04,
06/01/2021,01:10:14.00,236.82,-786.62,1.46,8.84,71.22,241.83,-172.05,-68.70,-76.65,32.58,134.04,
06/01/2021,01:10:14.02,424.32,-931.64,-57.13,-4.57,31.89,270.00,-172.65,-69.75,-75.00,32.63,134.04,
06/01/2021,01:10:14.02,471.68,-970.70,-73.24,-5.79,19.02,275.43,-172.65,-69.75,-75.45,32.77,134.04,
06/01/2021,01:10:14.02,524.41,-1015.14,-109.38,-11.40,5.61,278.84,-172.65,-69.75,-75.45,32.63,134.04,
06/01/2021,01:10:14.03,549.80,-1069.82,-120.12,-11.46,-5.18,284.94,-168.75,-70.65,-74.85,32.63,134.04,
06/01/2021,01:10:14.03,559.57,-1098.14,-117.19,-13.60,-13.60,285.79,-168.75,-70.65,-74.85,32.73,134.05,
06/01/2021,01:10:14.05,519.53,-1103.52,-51.27,-21.22,-33.66,294.15,-167.55,-72.45,-73.95,32.97,134.04,
06/01/2021,01:10:14.05,482.91,-1102.54,-48.34,-24.88,-35.37,297.01,-167.55,-72.45,-73.95,32.73,134.04,
06/01/2021,01:10:14.06,446.78,-1098.14,-19.04,-29.33,-40.85,302.87,-164.40,-71.40,-73.05,32.73,134.04,
06/01/2021,01:10:14.06,408.20,-1137.70,-19.04,-31.65,-39.33,302.32,-164.40,-71.40,-73.05,32.73,134.05,
06/01/2021,01:10:14.07,401.86,-1176.76,1.46,-34.21,-35.73,305.49,-162.75,-72.00,-75.45,32.82,134.05,
06/01/2021,01:10:14.08,298.83,-1304.69,42.97,-43.41,-13.90,307.68,-160.80,-73.20,-75.00,32.53,134.04,
06/01/2021,01:10:14.09,282.71,-1347.66,66.41,-48.48,-10.18,308.66,-160.50,-72.45,-75.00,32.58,134.05,
06/01/2021,01:10:14.09,286.62,-1395.02,62.01,-52.68,-3.78,307.07,-160.50,-72.45,-75.00,32.92,134.05,
06/01/2021,01:10:14.10,307.13,-1428.22,66.89,-51.65,6.52,306.22,-158.40,-71.85,-77.10,32.58,134.05,
06/01/2021,01:10:14.10,343.75,-1440.43,74.22,-56.71,16.22,310.61,-158.40,-71.85,-77.10,32.73,134.05,
06/01/2021,01:10:14.12,475.10,-1511.23,145.02,-66.04,41.89,302.26,-155.10,-72.60,-75.60,32.73,134.05,
06/01/2021,01:10:14.12,533.20,-1513.18,166.50,-68.78,47.87,296.22,-155.10,-72.60,-75.60,32.58,134.05,
06/01/2021,01:10:14.13,582.52,-1530.27,197.27,-70.43,51.89,295.24,-155.10,-72.60,-75.60,32.73,134.05,
06/01/2021,01:10:14.13,597.66,-1560.06,215.82,-71.77,46.95,290.85,-152.10,-71.10,-76.05,32.63,134.05,
06/01/2021,01:10:14.13,625.00,-1566.41,205.08,-72.93,43.90,288.48,-152.10,-71.10,-76.05,32.73,134.05,
06/01/2021,01:10:14.15,850.10,-1576.66,244.63,-83.84,5.79,275.49,-150.15,-71.25,-77.25,32.63,134.05,
06/01/2021,01:10:14.15,845.21,-1555.66,262.21,-83.23,-4.15,271.59,-150.15,-71.25,-77.25,32.58,134.05,
06/01/2021,01:10:14.16,826.66,-1494.63,297.85,-83.90,-14.39,266.89,-150.15,-71.25,-77.25,32.63,134.05,
06/01/2021,01:10:14.16,800.78,-1469.73,354.49,-77.38,-28.17,262.93,-150.15,-71.25,-77.25,32.58,134.05,
06/01/2021,01:10:14.17,774.41,-1441.89,393.07,-73.11,-32.20,260.43,-147.30,-68.40,-79.65,32.58,134.05,
06/01/2021,01:10:14.18,858.89,-1347.17,519.53,-64.09,-58.17,239.76,-145.50,-69.15,-77.85,32.77,134.05,
06/01/2021,01:10:14.19,894.53,-1271.97,577.15,-60.06,-63.41,233.90,-144.90,-68.25,-78.00,32.63,134.05,
06/01/2021,01:10:14.19,929.69,-1192.87,600.10,-55.91,-76.40,224.09,-144.90,-68.25,-78.00,32.77,134.05,
06/01/2021,01:10:14.20,976.07,-1115.23,610.84,-47.74,-88.96,214.63,-142.35,-65.40,-79.05,32.29,134.05,
06/01/2021,01:10:14.20,1033.69,-1076.66,588.38,-41.59,-100.55,204.21,-142.35,-65.40,-79.05,32.58,134.05,
06/01/2021,01:10:14.22,1247.07,-977.05,453.12,-17.99,-138.78,162.50,-140.10,-65.40,-77.55,32.58,134.05,
06/01/2021,01:10:14.22,1272.95,-951.66,398.93,-10.91,-147.20,145.00,-140.10,-65.40,-77.55,32.73,134.05,
06/01/2021,01:10:14.23,1247.56,-934.57,343.75,-2.07,-143.78,123.66,-137.55,-65.85,-79.50,32.73,134.05,
06/01/2021,01:10:14.23,1209.47,-927.25,328.12,1.59,-142.74,100.30,-137.55,-65.85,-79.50,32.58,134.05,
06/01/2021,01:10:14.25,1036.13,-880.37,273.93,16.71,-109.88,33.90,-138.45,-65.70,-78.15,32.77,134.05,
06/01/2021,01:10:14.25,990.72,-888.67,286.13,15.98,-94.76,16.34,-137.10,-63.90,-76.50,32.73,134.05,
06/01/2021,01:10:14.26,972.66,-888.18,316.41,20.49,-79.70,-4.33,-137.10,-63.90,-76.50,32.58,134.05,
06/01/2021,01:10:14.26,939.45,-869.14,318.36,22.50,-65.37,-24.57,-137.10,-63.90,-76.50,32.77,134.05,
06/01/2021,01:10:14.26,918.95,-864.75,329.59,26.83,-49.02,-39.70,-137.10,-63.90,-76.50,32.63,134.05,
06/01/2021,01:10:14.27,906.25,-853.03,348.63,26.71,-30.24,-55.85,-136.80,-63.15,-77.25,32.44,134.05,
06/01/2021,01:10:14.28,757.32,-983.89,69.82,22.20,13.05,-98.90,-136.80,-63.15,-77.25,32.58,134.05,
06/01/2021,01:10:14.29,635.25,-1113.77,-246.58,13.90,28.54,-110.98,-137.25,-65.70,-75.60,32.58,134.05,
06/01/2021,01:10:14.29,396.48,-1314.45,-474.12,-3.54,31.89,-118.96,-137.25,-65.70,-75.60,32.73,134.05,
06/01/2021,01:10:14.30,-0.98,-1433.11,-348.63,-8.66,37.13,-118.78,-136.20,-65.25,-77.10,32.63,134.05,
06/01/2021,01:10:14.31,-2096.19,-1872.07,-208.01,17.62,-50.24,-39.94,-139.20,-65.70,-75.30,32.77,134.05,
06/01/2021,01:10:14.32,-1930.66,-1826.66,-416.99,19.09,-31.16,-34.63,-139.20,-65.25,-76.65,32.63,134.05,
06/01/2021,01:10:14.32,-1253.42,-1594.73,-368.16,13.90,24.21,-50.06,-139.20,-65.25,-76.65,32.73,134.05,
06/01/2021,01:10:14.33,-447.75,-1319.82,-85.94,7.38,97.99,-72.93,-139.20,-65.25,-76.65,32.92,134.05,
06/01/2021,01:10:14.33,449.71,-1173.83,270.02,5.98,158.66,-95.49,-139.20,-65.25,-76.65,32.63,134.05,
06/01/2021,01:10:14.35,715.82,-1230.96,1114.26,35.49,78.29,-140.79,-140.70,-67.95,-75.60,32.63,134.05,
06/01/2021,01:10:14.35,412.11,-1098.63,888.18,58.35,25.55,-116.46,-140.70,-67.95,-75.60,32.77,134.05,
06/01/2021,01:10:14.36,258.30,-1101.07,607.42,64.45,-9.45,-102.80,-141.75,-66.90,-76.65,32.73,134.05,
06/01/2021,01:10:14.36,134.28,-998.05,635.74,70.18,-4.33,-105.67,-141.75,-66.90,-76.65,32.39,134.05,
06/01/2021,01:10:14.37,-27.83,-888.18,573.24,68.96,15.79,-110.79,-140.40,-66.60,-76.50,32.77,134.05,
06/01/2021,01:10:14.43,21.48,-1053.71,283.20,30.00,-71.22,-37.68,-145.80,-69.60,-76.65,32.77,134.04,
06/01/2021,01:10:14.45,-122.07,-1011.72,247.56,25.37,-42.07,-28.90,-145.95,-69.30,-76.50,32.73,134.04,
06/01/2021,01:10:14.45,-115.72,-1006.84,258.30,24.70,-28.41,-27.20,-145.95,-69.30,-76.50,32.77,134.04,
06/01/2021,01:10:14.45,-134.28,-981.93,280.27,24.57,-17.44,-29.63,-145.95,-69.30,-76.50,32.73,134.04,
06/01/2021,01:10:14.46,-123.05,-969.24,310.55,23.78,-6.71,-30.43,-145.50,-69.15,-77.10,32.44,134.04,
06/01/2021,01:10:14.47,-57.62,-1000.49,302.73,21.59,1.95,-34.51,-143.85,-70.95,-76.20,32.77,134.04,
06/01/2021,01:10:14.48,-51.27,-980.47,312.01,22.01,1.89,-34.09,-144.75,-69.15,-74.10,32.73,134.04,
06/01/2021,01:10:14.48,-1.46,-980.96,317.87,20.06,3.11,-34.09,-144.75,-69.15,-74.10,32.77,134.04,
06/01/2021,01:10:14.49,13.18,-974.12,320.31,21.95,-1.04,-34.33,-145.50,-69.15,-76.35,32.73,134.04,
06/01/2021,01:10:14.49,41.50,-982.91,342.29,23.41,-3.05,-34.39,-145.50,-69.15,-76.35,32.73,134.04,
06/01/2021,01:10:14.51,56.15,-960.45,396.00,24.39,-20.12,-26.83,-145.95,-70.50,-73.95,32.73,134.04,
06/01/2021,01:10:14.51,48.34,-939.94,403.32,22.68,-21.77,-25.43,-145.95,-70.50,-73.95,32.63,134.04,
06/01/2021,01:10:14.52,36.62,-932.62,418.95,22.74,-28.48,-23.96,-145.95,-70.50,-73.95,32.73,134.04,
06/01/2021,01:10:14.52,16.11,-922.85,406.74,23.48,-34.15,-23.17,-146.55,-69.15,-74.85,32.73,134.04,
06/01/2021,01:10:14.53,6.35,-933.11,403.32,24.63,-32.20,-20.37,-146.55,-69.15,-74.85,32.53,134.04,
06/01/2021,01:10:14.53,7.81,-928.22,392.58,23.11,-36.59,-20.49,-145.05,-70.65,-74.85,32.73,134.04,
06/01/2021,01:10:14.55,8.79,-972.66,344.24,19.39,-28.11,-18.48,-145.95,-70.05,-75.75,32.58,134.04,
06/01/2021,01:10:14.55,17.09,-959.47,322.75,20.98,-25.30,-14.94,-145.95,-70.05,-75.75,32.73,134.04,
06/01/2021,01:10:14.55,22.95,-971.68,337.40,17.93,-23.84,-17.20,-145.95,-70.05,-75.75,32.58,134.04,
06/01/2021,01:10:14.56,20.51,-963.87,333.50,17.74,-18.72,-14.76,-146.25,-71.10,-74.55,32.82,134.04,
06/01/2021,01:10:14.56,28.32,-962.40,331.05,16.34,-18.96,-16.89,-146.25,-71.10,-74.55,32.53,134.04,
06/01/2021,01:10:14.58,21.97,-939.94,368.16,16.52,-14.09,-15.30,-146.55,-70.65,-74.55,32.73,134.04,
06/01/2021,01:10:14.58,32.71,-952.64,385.74,12.93,-13.35,-14.94,-146.55,-70.65,-74.55,32.73,134.04,
06/01/2021,01:10:14.59,37.60,-946.78,382.32,15.18,-15.67,-15.55,-147.45,-70.50,-73.65,32.44,134.04,
06/01/2021,01:10:14.59,41.02,-952.64,393.07,15.24,-16.83,-15.61,-147.45,-70.50,-73.65,32.73,134.04,
06/01/2021,01:10:14.60,52.25,-948.73,390.14,14.21,-19.57,-16.46,-147.45,-70.50,-73.65,32.63,134.05,
06/01/2021,01:10:14.61,72.27,-930.66,391.60,14.76,-27.26,-15.18,-146.25,-71.85,-72.30,32.58,134.04,
06/01/2021,01:10:14.62,76.66,-936.52,411.13,14.63,-31.71,-15.00,-146.25,-71.85,-72.30,32.73,134.04,
06/01/2021,01:10:14.62,44.92,-927.25,388.67,16.40,-34.94,-13.17,-146.25,-71.85,-72.30,32.58,134.05,
06/01/2021,01:10:14.63,35.16,-942.38,393.07,15.12,-35.79,-10.67,-146.25,-71.85,-72.30,32.63,134.05,
06/01/2021,01:10:14.63,27.34,-936.52,380.37,16.83,-38.29,-15.55,-145.80,-70.35,-73.80,32.73,134.05,
06/01/2021,01:10:14.65,-26.37,-942.87,371.09,14.15,-31.52,-18.17,-145.80,-71.10,-72.30,32.63,134.04,
06/01/2021,01:10:14.65,-29.79,-946.78,376.95,13.78,-30.06,-20.85,-147.90,-71.70,-71.70,32.73,134.05,
06/01/2021,01:10:14.65,-29.79,-952.15,384.28,12.20,-24.94,-20.85,-147.90,-71.70,-71.70,32.58,134.05,
06/01/2021,01:10:14.66,-24.90,-963.87,386.72,12.62,-23.35,-23.72,-147.45,-71.70,-71.40,32.58,134.05,
06/01/2021,01:10:14.66,-16.60,-967.77,388.18,14.21,-19.70,-26.22,-147.45,-71.70,-71.40,32.73,134.05,
06/01/2021,01:10:14.68,42.48,-943.36,392.58,13.23,-18.66,-30.61,-145.80,-71.40,-72.30,32.73,134.05,
06/01/2021,01:10:14.68,57.62,-941.41,394.53,14.57,-18.17,-31.10,-145.80,-71.40,-72.30,32.63,134.05,
06/01/2021,01:10:14.69,66.89,-937.50,392.58,13.84,-22.44,-32.01,-148.95,-71.70,-72.45,32.73,134.05,
06/01/2021,01:10:14.69,79.10,-946.78,393.07,14.76,-20.67,-31.71,-148.95,-71.70,-72.45,32.77,134.05,
06/01/2021,01:10:14.70,72.27,-959.47,410.16,14.39,-27.20,-29.76,-148.95,-71.70,-72.45,32.73,134.05,
06/01/2021,01:10:14.71,48.83,-957.03,373.05,18.96,-26.34,-35.91,-147.45,-72.75,-71.40,32.73,134.05,
06/01/2021,01:10:14.72,32.23,-952.64,395.02,17.26,-21.52,-36.95,-147.45,-72.75,-71.40,32.73,134.05,
06/01/2021,01:10:14.72,21.48,-949.71,381.84,18.23,-25.24,-34.45,-147.45,-72.75,-71.40,32.58,134.05,
06/01/2021,01:10:14.73,26.86,-947.75,380.37,21.52,-23.78,-38.96,-147.45,-72.75,-71.40,32.77,134.05,
06/01/2021,01:10:14.73,28.81,-957.03,373.05,20.06,-21.34,-42.07,-146.55,-72.30,-72.30,32.63,134.05,
06/01/2021,01:10:14.75,49.32,-950.68,398.93,20.55,-17.68,-43.90,-148.20,-71.25,-71.70,32.39,134.05,
06/01/2021,01:10:14.75,48.83,-956.54,382.32,22.80,-17.50,-47.07,-148.65,-72.00,-72.15,32.73,134.05,
06/01/2021,01:10:14.75,53.71,-956.05,388.67,22.20,-15.18,-46.34,-148.65,-72.00,-72.15,32.73,134.05,
06/01/2021,01:10:14.76,44.92,-960.45,396.48,23.84,-16.34,-48.96,-147.45,-71.25,-71.70,32.58,134.05,
06/01/2021,01:10:14.76,69.82,-947.27,410.64,23.35,-14.15,-48.66,-147.45,-71.25,-71.70,32.73,134.05,
06/01/2021,01:10:14.78,76.66,-954.59,409.18,26.40,-13.54,-55.30,-149.10,-73.05,-72.00,32.63,134.05,
06/01/2021,01:10:14.78,88.87,-937.01,420.41,29.39,-11.83,-58.17,-149.10,-73.05,-72.00,32.44,134.05,
06/01/2021,01:10:14.79,102.05,-952.64,425.29,29.57,-14.88,-57.74,-148.05,-71.10,-71.55,32.77,134.05,
06/01/2021,01:10:14.79,122.07,-950.68,421.39,29.57,-11.89,-61.16,-148.05,-71.10,-71.55,32.73,134.05,
06/01/2021,01:10:14.80,156.74,-956.54,421.88,28.66,-14.94,-61.16,-148.05,-71.10,-71.55,32.82,134.05,
06/01/2021,01:10:14.81,237.79,-978.03,426.27,32.38,-25.79,-62.20,-149.85,-73.35,-69.75,32.63,134.05,
06/01/2021,01:10:14.82,233.89,-980.96,425.29,33.90,-29.27,-63.78,-149.85,-73.35,-69.75,32.73,134.05,
06/01/2021,01:10:14.82,247.56,-958.50,428.22,32.20,-31.83,-64.09,-148.65,-73.65,-69.90,32.58,134.05,
06/01/2021,01:10:14.83,247.56,-954.59,423.34,33.17,-34.21,-62.07,-148.65,-73.65,-69.90,32.77,134.05,
06/01/2021,01:10:14.83,222.17,-952.64,435.55,31.22,-34.45,-62.87,-150.60,-72.60,-69.45,32.58,134.05,
06/01/2021,01:10:14.85,195.80,-955.57,461.91,32.62,-41.71,-61.65,-150.60,-72.60,-69.45,32.73,134.05,
06/01/2021,01:10:14.85,200.20,-959.47,459.96,29.63,-43.05,-67.56,-149.85,-74.55,-70.20,32.63,134.05,
06/01/2021,01:10:14.85,204.10,-950.68,466.80,30.30,-44.33,-67.87,-149.85,-74.55,-70.20,32.73,134.05,
06/01/2021,01:10:14.86,209.96,-949.71,470.21,26.89,-42.62,-67.80,-150.60,-73.80,-70.20,32.73,134.05,
06/01/2021,01:10:14.86,217.77,-960.45,470.21,29.21,-42.74,-67.07,-150.60,-73.80,-70.20,32.73,134.05,
06/01/2021,01:10:14.88,261.72,-990.23,471.19,26.65,-49.09,-65.79,-152.10,-73.80,-68.25,32.73,134.05,
06/01/2021,01:10:14.88,269.04,-1007.32,463.38,25.18,-52.20,-68.48,-152.10,-73.80,-68.25,32.92,134.05,
06/01/2021,01:10:14.89,281.74,-1012.21,437.01,27.38,-52.50,-68.11,-152.10,-73.80,-68.25,32.58,134.05,
06/01/2021,01:10:14.92,282.23,-1089.36,421.88,24.27,-58.60,-81.52,-154.50,-73.95,-68.55,32.58,134.05,
06/01/2021,01:10:14.94,239.26,-1226.56,420.41,21.77,-57.26,-86.40,-154.05,-75.00,-67.20,32.44,134.05,
06/01/2021,01:10:14.95,177.25,-1271.48,467.77,21.52,-52.62,-95.49,-156.75,-74.40,-67.35,32.58,134.04,
06/01/2021,01:10:14.95,201.66,-1272.95,414.55,20.79,-49.51,-97.13,-156.75,-74.40,-67.35,32.44,134.04,
06/01/2021,01:10:14.96,230.47,-1262.21,394.53,21.59,-50.61,-98.60,-154.50,-75.15,-68.55,32.73,134.05,
06/01/2021,01:10:14.96,262.70,-1264.16,378.42,22.80,-53.17,-99.82,-154.50,-75.15,-68.55,32.44,134.05,
06/01/2021,01:10:14.97,293.46,-1264.65,342.77,24.57,-57.93,-98.78,-154.50,-75.15,-68.55,32.73,134.05,
06/01/2021,01:10:14.99,206.05,-1328.61,271.48,28.66,-77.93,-105.30,-158.40,-75.30,-65.70,32.58,134.04,
06/01/2021,01:10:14.99,153.81,-1355.96,269.04,31.59,-79.94,-107.80,-158.40,-75.30,-65.70,32.63,134.04,
06/01/2021,01:10:15.00,109.86,-1359.86,258.79,32.20,-83.60,-107.01,-158.40,-75.30,-65.70,32.58,134.05,
06/01/2021,01:10:15.00,81.54,-1384.28,275.39,32.68,-83.72,-106.89,-158.55,-76.35,-67.35,32.73,134.05,
06/01/2021,01:10:15.01,55.66,-1409.18,312.01,33.41,-82.50,-107.87,-158.55,-76.35,-67.35,32.44,134.05,
06/01/2021,01:10:15.02,-49.32,-1388.67,481.93,44.82,-81.83,-111.46,-159.30,-75.15,-66.30,32.58,134.05,
06/01/2021,01:10:15.03,-24.41,-1385.25,484.86,50.91,-77.56,-114.76,-159.30,-75.15,-66.30,32.58,134.05,
06/01/2021,01:10:15.03,-26.86,-1381.35,479.00,55.73,-76.46,-115.98,-159.60,-75.00,-67.50,32.39,134.05,
06/01/2021,01:10:15.03,-20.02,-1384.77,520.02,59.33,-75.12,-119.63,-159.60,-75.00,-67.50,32.63,134.05,
06/01/2021,01:10:15.04,83.50,-1394.04,512.21,63.60,-67.56,-126.77,-160.05,-73.95,-67.80,32.29,134.05,
06/01/2021,01:10:15.05,544.43,-1449.71,635.25,70.73,-40.49,-167.07,-162.30,-74.70,-67.35,32.53,134.05,
06/01/2021,01:10:15.06,611.33,-1456.05,642.09,70.43,-33.23,-175.67,-162.30,-74.70,-67.35,32.73,134.05,
06/01/2021,01:10:15.06,540.53,-1472.66,711.43,70.43,-31.10,-181.28,-162.30,-74.70,-67.35,32.44,134.05,
06/01/2021,01:10:15.07,505.86,-1456.54,749.02,70.18,-38.29,-180.43,-162.30,-74.70,-67.35,32.73,134.05,
06/01/2021,01:10:15.07,501.46,-1391.60,763.18,73.48,-48.41,-174.02,-162.90,-75.00,-64.95,32.63,134.05,
06/01/2021,01:10:15.09,387.21,-1213.38,636.72,71.28,-97.50,-151.28,-163.05,-74.40,-65.25,32.58,134.05,
06/01/2021,01:10:15.09,334.47,-1159.18,594.73,71.83,-113.60,-138.66,-165.30,-74.40,-62.70,32.77,134.05,
06/01/2021,01:10:15.10,276.37,-1120.12,546.88,71.46,-125.06,-132.56,-165.30,-74.40,-62.70,32.63,134.05,
06/01/2021,01:10:15.10,184.08,-1080.57,483.89,66.28,-130.85,-117.44,-165.60,-73.95,-64.05,32.58,134.05,
06/01/2021,01:10:15.11,122.07,-1025.88,430.66,61.10,-135.67,-111.46,-165.60,-73.95,-64.05,32.58,134.05,
06/01/2021,01:10:15.12,-234.86,-615.72,489.75,60.91,-122.44,-65.55,-166.50,-75.00,-62.85,32.44,134.05,
06/01/2021,01:10:15.13,-201.17,-444.82,421.39,67.07,-112.74,-53.48,-166.50,-75.00,-62.85,32.39,134.05,
06/01/2021,01:10:15.13,-193.85,-293.46,263.18,62.32,-104.27,-43.17,-165.90,-74.25,-63.60,32.63,134.05,
06/01/2021,01:10:15.14,-130.37,-154.79,222.17,51.83,-111.71,-30.24,-165.90,-74.25,-63.60,32.63,134.05,
06/01/2021,01:10:15.14,23.44,-64.94,176.27,45.12,-106.71,-20.18,-165.90,-73.35,-63.90,32.63,134.05,
06/01/2021,01:10:15.16,-122.56,-181.15,234.38,54.51,-100.91,19.76,-167.10,-73.65,-63.30,32.53,134.05,
06/01/2021,01:10:15.16,-206.54,-282.23,67.38,44.33,-121.28,38.23,-167.10,-73.65,-63.30,32.58,134.05,
06/01/2021,01:10:15.16,-172.85,-338.87,-101.07,33.72,-131.04,58.23,-167.10,-73.65,-63.30,32.73,134.05,
06/01/2021,01:10:15.17,-133.79,-374.02,-158.20,23.72,-131.10,73.66,-166.50,-73.80,-64.35,32.63,134.05,
06/01/2021,01:10:15.17,-147.46,-413.09,-166.50,22.68,-127.38,83.96,-166.50,-73.80,-64.35,32.97,134.05,
06/01/2021,01:10:15.19,-414.55,-337.40,-117.68,22.93,-76.71,115.67,-166.50,-73.80,-64.35,32.58,134.05,
06/01/2021,01:10:15.19,-499.51,-311.52,-75.20,23.48,-57.87,126.16,-166.50,-75.00,-62.40,32.73,134.05,
06/01/2021,01:10:15.20,-528.32,-300.78,-57.13,20.91,-34.09,131.95,-166.50,-75.00,-62.40,32.63,134.05,
06/01/2021,01:10:15.20,-517.58,-303.71,-64.94,16.52,-12.26,143.90,-164.55,-73.65,-63.00,32.73,134.05,
06/01/2021,01:10:15.21,-461.43,-336.43,-100.59,8.84,14.94,151.16,-164.55,-73.65,-63.00,32.63,134.05,
06/01/2021,01:10:15.22,-220.70,-514.65,-49.80,-2.56,68.35,178.29,-164.55,-74.70,-62.25,32.44,134.05,
06/01/2021,01:10:15.23,-110.35,-547.85,-18.55,-4.88,76.65,188.05,-164.55,-74.70,-62.25,32.44,134.05,
06/01/2021,01:10:15.23,-42.97,-583.50,6.35,-9.27,80.49,196.40,-164.55,-74.70,-62.25,32.77,134.05,
06/01/2021,01:10:15.24,20.02,-623.05,29.79,-8.60,79.57,201.16,-164.55,-74.70,-62.25,32.58,134.05,
06/01/2021,01:10:15.24,67.87,-683.59,52.73,-10.91,79.70,216.34,-161.55,-74.40,-62.70,32.63,134.05,
06/01/2021,01:10:15.26,181.15,-818.36,60.06,-17.01,60.12,246.28,-161.40,-75.30,-62.85,32.73,134.05,
06/01/2021,01:10:15.26,221.19,-862.79,47.36,-17.74,55.79,252.07,-159.60,-73.05,-64.35,32.73,134.05,
06/01/2021,01:10:15.26,271.97,-910.64,42.48,-20.55,47.07,260.61,-159.60,-73.05,-64.35,32.58,134.05,
06/01/2021,01:10:15.27,329.59,-942.87,23.93,-23.48,38.11,271.40,-156.75,-75.60,-63.30,32.73,134.05,
06/01/2021,01:10:15.27,416.02,-998.54,7.81,-25.49,28.48,275.18,-156.75,-75.60,-63.30,32.44,134.05,
06/01/2021,01:10:15.29,541.99,-1088.38,12.21,-28.84,-0.61,288.90,-156.75,-75.60,-63.30,32.53,134.05,
06/01/2021,01:10:15.29,568.85,-1117.68,9.28,-29.88,-11.83,294.45,-156.75,-75.60,-64.05,32.77,134.05,
06/01/2021,01:10:15.30,561.52,-1146.97,30.76,-31.10,-20.00,296.52,-156.75,-75.60,-64.05,32.77,134.05,
06/01/2021,01:10:15.30,558.11,-1164.06,46.39,-31.83,-27.62,297.07,-152.70,-72.45,-64.50,32.73,134.05,
06/01/2021,01:10:15.31,529.30,-1192.87,47.36,-34.63,-35.67,301.89,-152.70,-72.45,-64.50,32.63,134.05,
06/01/2021,01:10:15.32,406.25,-1293.95,86.91,-38.41,-43.78,309.88,-150.60,-73.05,-61.65,32.39,134.05,
06/01/2021,01:10:15.33,383.79,-1331.54,100.59,-41.34,-44.02,310.06,-150.60,-73.05,-61.65,32.73,134.05,
06/01/2021,01:10:15.33,333.98,-1358.40,119.14,-42.62,-36.16,309.57,-150.60,-73.05,-61.65,32.63,134.05,
06/01/2021,01:10:15.34,315.92,-1397.46,124.02,-45.06,-30.85,312.20,-150.60,-73.05,-61.65,32.73,134.05,
06/01/2021,01:10:15.34,326.66,-1423.83,141.60,-46.71,-27.07,313.11,-146.55,-70.35,-63.60,32.53,134.05,
06/01/2021,01:10:15.36,443.36,-1465.33,233.89,-53.84,-10.85,306.22,-146.55,-70.35,-63.60,32.73,134.05,
06/01/2021,01:10:15.36,513.18,-1478.03,270.02,-55.67,-7.01,303.84,-144.90,-71.70,-62.70,32.77,134.05,
06/01/2021,01:10:15.37,564.45,-1500.98,284.67,-54.45,-12.32,301.59,-144.90,-71.70,-62.70,32.73,134.05,
06/01/2021,01:10:15.37,640.62,-1526.86,281.25,-57.68,-24.57,299.39,-141.45,-70.65,-62.40,32.63,134.05,
06/01/2021,01:10:15.37,691.89,-1533.20,285.16,-57.26,-37.26,295.85,-141.45,-70.65,-62.40,32.58,134.05,
06/01/2021,01:10:15.39,791.99,-1498.54,269.53,-55.24,-74.76,282.20,-140.25,-68.40,-62.40,32.53,134.05,
06/01/2021,01:10:15.39,792.48,-1471.68,290.04,-54.09,-82.99,279.02,-140.25,-69.15,-62.10,32.73,134.05,
06/01/2021,01:10:15.45,958.01,-1078.12,434.08,-5.18,-249.33,215.43,-133.20,-64.50,-57.30,32.58,134.05,
06/01/2021,01:10:15.46,826.66,-994.14,277.83,5.98,-269.21,186.16,-132.00,-60.45,-57.15,32.73,134.04,
06/01/2021,01:10:15.47,780.27,-986.82,220.21,11.65,-269.94,173.48,-132.00,-60.45,-57.15,32.44,134.04,
06/01/2021,01:10:15.48,634.28,-961.91,78.12,14.82,-235.30,119.21,-131.25,-60.30,-55.80,32.63,134.04,
06/01/2021,01:10:15.48,616.21,-949.71,64.94,17.01,-217.07,106.28,-131.25,-60.45,-52.35,32.63,134.04,
06/01/2021,01:10:15.49,614.26,-944.82,54.20,17.87,-192.68,86.10,-131.25,-60.45,-52.35,32.44,134.04,
06/01/2021,01:10:15.49,635.74,-943.85,38.09,17.26,-172.99,68.11,-130.35,-58.65,-52.20,32.73,134.05,
06/01/2021,01:10:15.50,661.62,-937.50,21.48,16.34,-150.91,47.20,-130.35,-58.65,-52.20,32.39,134.05,
06/01/2021,01:10:15.51,690.92,-905.76,39.06,12.07,-86.04,-3.96,-132.15,-59.10,-51.15,32.44,134.04,
06/01/2021,01:10:15.52,680.18,-900.88,61.04,12.50,-71.22,-17.38,-132.15,-59.10,-51.15,32.73,134.04,
06/01/2021,01:10:15.52,654.30,-907.23,51.76,9.88,-52.26,-30.43,-132.15,-59.10,-51.15,32.44,134.05,
06/01/2021,01:10:15.53,626.46,-912.11,39.55,10.12,-35.06,-42.93,-132.15,-59.10,-51.15,32.53,134.05,
06/01/2021,01:10:15.53,604.49,-970.70,-79.10,7.32,-13.96,-54.76,-130.95,-57.90,-50.70,32.73,134.05,
06/01/2021,01:10:15.55,134.28,-1451.66,-106.45,-20.00,40.49,-93.11,-132.30,-58.95,-48.30,32.73,134.05,
06/01/2021,01:10:15.55,-501.95,-1618.16,194.82,-15.73,28.96,-84.82,-132.90,-59.55,-49.95,32.73,134.05,
06/01/2021,01:10:15.56,-1224.61,-1821.29,323.24,-5.49,-2.01,-67.62,-132.90,-59.55,-49.95,32.63,134.05,
06/01/2021,01:10:15.56,-1600.10,-2010.25,206.05,2.32,-25.67,-50.18,-131.55,-59.70,-49.80,32.53,134.05,
06/01/2021,01:10:15.57,-1449.71,-1967.77,38.09,6.16,-7.68,-48.11,-131.55,-59.70,-49.80,32.73,134.05,
06/01/2021,01:10:15.58,766.60,-1258.79,657.71,-1.65,218.48,-129.21,-131.70,-61.80,-48.90,32.63,134.05,
06/01/2021,01:10:15.59,918.95,-1378.42,748.05,-10.55,213.41,-146.28,-131.70,-61.80,-48.90,32.53,134.05,
06/01/2021,01:10:15.59,694.34,-1304.69,925.78,-0.91,181.16,-154.94,-132.45,-62.25,-50.40,32.73,134.05,
06/01/2021,01:10:15.60,413.09,-1112.79,829.59,24.51,147.38,-148.17,-132.45,-62.25,-50.40,32.25,134.05,
06/01/2021,01:10:15.60,256.84,-987.30,576.66,36.10,113.78,-134.70,-132.90,-61.35,-49.95,32.73,134.05,
06/01/2021,01:10:15.62,213.38,-776.86,361.82,22.87,80.73,-126.65,-134.85,-63.60,-51.00,32.73,134.05,
06/01/2021,01:10:15.62,207.52,-718.75,438.48,15.06,75.24,-121.77,-134.85,-63.60,-51.00,32.82,134.05,
06/01/2021,01:10:15.63,222.17,-688.48,537.11,16.40,67.56,-114.15,-134.85,-63.60,-51.00,32.58,134.05,
06/01/2021,01:10:15.63,229.00,-683.59,575.68,17.62,50.61,-102.68,-134.55,-63.15,-51.30,32.58,134.05,
06/01/2021,01:10:15.64,250.98,-739.26,593.75,16.89,27.93,-88.11,-134.55,-63.15,-51.30,32.73,134.05,
06/01/2021,01:10:15.65,408.20,-845.70,444.82,21.28,-29.39,-54.45,-135.90,-65.70,-51.15,32.73,134.05,
06/01/2021,01:10:15.66,352.54,-914.55,406.74,21.71,-38.96,-48.54,-135.90,-65.70,-51.15,32.77,134.05,
06/01/2021,01:10:15.66,257.81,-981.93,392.58,23.54,-50.61,-43.17,-135.45,-64.95,-51.15,32.63,134.05,
06/01/2021,01:10:15.67,135.25,-1022.95,355.47,26.10,-52.80,-40.18,-135.45,-64.95,-52.95,32.58,134.05,
06/01/2021,01:10:15.67,37.60,-1055.66,327.15,25.18,-51.10,-37.99,-135.45,-64.95,-52.95,32.63,134.05,
06/01/2021,01:10:15.69,-161.62,-1048.83,277.83,21.34,-11.16,-35.61,-138.45,-64.05,-51.15,32.73,134.05,
06/01/2021,01:10:15.69,-194.82,-1010.25,288.57,18.78,-1.89,-33.78,-138.45,-64.05,-51.15,32.73,134.05,
06/01/2021,01:10:15.69,-182.13,-985.35,300.29,18.60,13.48,-33.96,-136.80,-64.35,-50.55,32.58,134.05,
06/01/2021,01:10:15.70,-167.97,-968.75,317.38,13.29,24.09,-34.82,-136.80,-64.35,-50.55,32.92,134.05,
06/01/2021,01:10:15.70,-131.84,-954.59,312.01,14.57,33.90,-34.45,-136.50,-65.70,-51.45,32.63,134.05,
06/01/2021,01:10:15.72,13.18,-985.35,336.43,12.13,35.00,-37.93,-136.50,-66.00,-51.45,32.73,134.05,
06/01/2021,01:10:15.72,24.90,-984.86,349.12,10.30,30.12,-37.20,-136.50,-66.00,-51.45,32.73,134.05,
06/01/2021,01:10:15.73,60.55,-984.38,360.35,13.60,24.21,-39.27,-136.50,-66.00,-51.45,32.63,134.05,
06/01/2021,01:10:15.73,66.41,-953.61,385.74,13.90,16.16,-36.16,-135.15,-65.70,-51.45,32.63,134.05,
06/01/2021,01:10:15.74,73.24,-920.90,428.71,17.80,8.05,-36.59,-135.15,-65.70,-51.45,32.39,134.05,
06/01/2021,01:10:15.75,14.16,-883.30,490.23,20.49,-18.05,-27.93,-137.55,-64.65,-51.30,32.58,134.05,
06/01/2021,01:10:15.76,-8.30,-899.90,480.96,20.49,-26.71,-27.01,-137.55,-64.65,-51.30,32.58,134.05,
06/01/2021,01:10:15.76,-17.09,-902.83,471.19,20.91,-28.35,-24.02,-138.45,-64.65,-51.30,32.73,134.05,
06/01/2021,01:10:15.77,-31.74,-939.94,456.05,17.56,-33.66,-26.16,-138.45,-65.70,-50.70,32.53,134.05,
06/01/2021,01:10:15.77,-21.97,-960.45,444.34,15.06,-40.12,-24.02,-138.45,-65.70,-50.70,32.63,134.05,
06/01/2021,01:10:15.79,15.62,-982.42,375.00,18.17,-43.17,-23.54,-136.50,-65.70,-49.65,32.44,134.05,
06/01/2021,01:10:15.79,12.21,-977.05,366.70,16.40,-41.89,-22.80,-136.50,-65.70,-49.65,32.58,134.05,
06/01/2021,01:10:15.79,16.60,-962.40,348.63,17.62,-40.73,-23.29,-136.50,-65.70,-49.65,32.63,134.05,
06/01/2021,01:10:15.80,4.39,-938.48,334.96,16.52,-38.05,-22.01,-136.50,-65.70,-49.65,32.58,134.05,
06/01/2021,01:10:15.80,15.62,-946.78,325.20,17.80,-34.09,-17.68,-136.80,-65.10,-49.80,32.63,134.05,
06/01/2021,01:10:15.82,-19.04,-926.76,358.40,16.28,-21.95,-17.99,-138.45,-66.00,-48.15,32.63,134.05,
06/01/2021,01:10:15.82,-27.83,-948.73,367.19,16.16,-15.98,-18.11,-139.95,-66.00,-49.35,32.63,134.05,
06/01/2021,01:10:15.83,-20.51,-934.08,377.93,13.23,-15.79,-17.32,-139.95,-66.00,-49.35,32.58,134.05,
06/01/2021,01:10:15.83,-23.93,-944.34,391.60,14.63,-12.44,-18.66,-139.20,-66.90,-49.65,32.77,134.05,
06/01/2021,01:10:15.84,17.09,-945.31,408.69,10.91,-15.37,-19.15,-139.20,-66.90,-49.65,32.44,134.05,
06/01/2021,01:10:15.85,60.06,-940.43,449.22,14.09,-23.72,-16.46,-139.65,-66.30,-48.30,32.73,134.05,
06/01/2021,01:10:15.86,80.08,-922.85,443.85,14.09,-31.28,-16.59,-139.65,-66.30,-48.30,32.39,134.05,
06/01/2021,01:10:15.86,85.45,-920.90,456.54,16.52,-32.20,-13.41,-139.65,-66.30,-48.30,32.73,134.05,
06/01/2021,01:10:15.87,82.52,-929.69,449.22,14.88,-36.59,-14.02,-137.70,-64.95,-49.65,32.63,134.05,
06/01/2021,01:10:15.87,62.50,-906.74,437.99,16.04,-38.11,-12.62,-137.70,-64.95,-49.65,32.73,134.05,
06/01/2021,01:10:15.89,-15.62,-916.02,413.09,18.41,-38.23,-10.06,-139.65,-66.60,-48.00,32.73,134.05,
06/01/2021,01:10:15.89,-29.79,-934.57,397.95,16.89,-34.09,-11.40,-139.65,-66.60,-48.00,32.58,134.05,
06/01/2021,01:10:15.89,-42.48,-945.31,389.16,15.98,-32.80,-13.17,-139.65,-66.60,-48.00,32.73,134.05,
06/01/2021,01:10:15.90,-51.27,-943.85,394.04,15.85,-25.49,-15.00,-139.65,-66.60,-48.00,32.44,134.05,
06/01/2021,01:10:15.95,96.19,-921.39,408.20,23.23,-17.74,-25.79,-140.85,-67.35,-44.70,32.58,134.05,
06/01/2021,01:10:15.98,61.04,-915.04,415.53,24.94,-21.34,-26.59,-141.15,-66.60,-46.50,32.77,134.04,
06/01/2021,01:10:15.98,66.89,-921.88,407.71,25.18,-21.95,-26.22,-141.15,-66.60,-46.50,32.77,134.04,
06/01/2021,01:10:15.98,86.43,-927.73,427.25,26.40,-20.79,-29.63,-141.90,-67.80,-46.50,32.44,134.04,
06/01/2021,01:10:15.99,111.33,-915.53,428.22,27.01,-18.11,-26.46,-141.90,-67.80,-46.50,32.73,134.04,
06/01/2021,01:10:15.99,100.10,-933.59,424.80,27.01,-19.94,-27.01,-141.00,-64.95,-47.10,32.39,134.04,
06/01/2021,01:10:16.01,111.82,-927.25,446.78,27.44,-21.59,-28.05,-140.40,-67.05,-46.20,32.44,134.04,
06/01/2021,01:10:16.01,125.00,-911.62,465.82,30.37,-23.35,-26.71,-140.40,-67.05,-46.20,32.53,134.04,
06/01/2021,01:10:16.02,128.91,-901.86,459.96,28.60,-22.56,-25.18,-140.40,-67.05,-46.20,32.63,134.04,
06/01/2021,01:10:16.02,123.05,-912.60,472.17,30.79,-25.12,-28.23,-140.25,-66.00,-47.10,32.53,134.04,
06/01/2021,01:10:16.03,125.49,-908.20,452.15,30.55,-23.29,-26.89,-140.25,-66.00,-47.10,32.58,134.05,
06/01/2021,01:10:16.04,105.96,-900.39,457.03,32.01,-26.16,-26.89,-142.80,-64.95,-44.10,32.58,134.04,
06/01/2021,01:10:16.05,128.42,-896.00,470.70,32.80,-20.37,-26.04,-142.80,-64.95,-44.10,32.53,134.04,
06/01/2021,01:10:16.05,116.70,-917.48,471.19,29.21,-25.12,-27.07,-142.80,-64.95,-44.10,32.58,134.05,
06/01/2021,01:10:16.06,135.25,-905.27,472.66,32.99,-23.72,-25.55,-143.10,-65.10,-46.20,32.25,134.05,
06/01/2021,01:10:16.06,146.48,-912.11,489.26,33.66,-24.45,-24.02,-143.10,-65.10,-46.20,32.63,134.05,
06/01/2021,01:10:16.08,167.97,-942.38,489.75,32.80,-28.11,-25.24,-141.90,-67.05,-45.15,32.58,134.04,
06/01/2021,01:10:16.08,165.04,-929.69,503.42,35.12,-31.40,-27.01,-141.90,-67.05,-45.15,32.63,134.05,
06/01/2021,01:10:16.08,171.88,-933.11,502.93,36.16,-32.74,-27.99,-141.90,-67.05,-45.15,32.73,134.05,
06/01/2021,01:10:16.09,188.96,-907.71,480.96,35.91,-36.65,-25.00,-141.90,-67.05,-45.15,32.58,134.05,
06/01/2021,01:10:16.09,184.08,-906.74,501.95,37.87,-36.16,-25.24,-142.65,-65.10,-45.15,32.63,134.05,
06/01/2021,01:10:16.11,210.45,-916.50,491.21,43.05,-49.45,-27.26,-144.60,-66.30,-43.95,32.73,134.05,
06/01/2021,01:10:16.11,207.52,-922.85,499.02,40.55,-49.94,-31.83,-144.15,-66.30,-43.65,32.82,134.05,
06/01/2021,01:10:16.12,193.36,-912.60,490.23,41.71,-57.74,-31.40,-144.15,-66.30,-43.65,32.63,134.05,
06/01/2021,01:10:16.12,182.62,-919.92,500.49,44.21,-58.72,-31.16,-143.40,-66.30,-43.65,32.53,134.05,
06/01/2021,01:10:16.13,178.22,-922.36,519.04,45.55,-62.99,-32.74,-143.40,-66.30,-43.65,32.63,134.05,
06/01/2021,01:10:16.14,89.84,-953.12,619.14,47.50,-77.38,-35.24,-144.60,-66.60,-41.85,32.77,134.05,
06/01/2021,01:10:16.15,72.75,-952.15,624.51,48.96,-77.44,-36.04,-144.60,-66.60,-41.85,32.73,134.05,
06/01/2021,01:10:16.15,76.17,-947.27,670.41,50.06,-82.32,-39.82,-144.60,-66.60,-41.85,32.77,134.05,
06/01/2021,01:10:16.16,97.66,-959.47,690.43,48.72,-82.20,-40.00,-144.30,-67.65,-42.30,32.73,134.05,
06/01/2021,01:10:16.16,120.61,-984.38,710.45,49.33,-88.05,-41.10,-144.30,-67.65,-42.30,32.82,134.05,
06/01/2021,01:10:16.18,123.54,-1080.08,809.08,63.66,-107.01,-39.21,-147.30,-66.45,-41.55,32.58,134.05,
06/01/2021,01:10:16.18,164.06,-1117.19,750.49,68.17,-112.62,-38.11,-147.30,-66.45,-41.55,32.58,134.05,
06/01/2021,01:10:16.19,181.64,-1161.13,685.55,67.93,-118.90,-38.72,-147.30,-66.45,-41.55,32.63,134.05,
06/01/2021,01:10:16.19,215.82,-1215.82,615.23,71.28,-125.98,-38.72,-145.95,-65.85,-42.15,32.73,134.05,
06/01/2021,01:10:16.20,275.88,-1235.84,529.79,75.06,-132.44,-37.50,-145.95,-65.85,-42.15,32.73,134.05,
06/01/2021,01:10:16.21,337.40,-1300.78,481.45,84.88,-154.15,-40.30,-147.15,-66.30,-39.90,32.73,134.05,
06/01/2021,01:10:16.22,348.63,-1291.99,471.68,87.99,-163.05,-41.83,-147.15,-66.30,-39.90,32.73,134.05,
06/01/2021,01:10:16.22,335.94,-1326.17,490.23,92.32,-171.40,-42.50,-148.65,-64.35,-40.65,32.73,134.05,
06/01/2021,01:10:16.23,306.15,-1356.45,509.77,96.83,-179.57,-41.83,-148.65,-64.35,-40.65,32.39,134.05,
06/01/2021,01:10:16.23,297.85,-1397.46,562.99,103.29,-190.91,-40.12,-148.65,-64.35,-40.65,32.82,134.05,
06/01/2021,01:10:16.25,329.10,-1499.02,725.10,118.23,-234.15,-31.71,-151.35,-64.95,-37.20,32.63,134.05,
06/01/2021,01:10:16.25,328.61,-1508.79,767.09,125.55,-251.59,-24.45,-151.35,-64.95,-37.20,32.44,134.05,
06/01/2021,01:10:16.26,221.19,-1500.98,792.97,136.22,-270.12,-17.80,-151.35,-64.95,-37.20,32.39,134.05,
06/01/2021,01:10:16.26,67.87,-1451.17,771.48,144.45,-293.78,-6.77,-151.35,-64.95,-37.20,32.73,134.05,
06/01/2021,01:10:16.27,-40.53,-1407.71,707.03,151.77,-312.80,8.60,-151.20,-62.70,-37.05,32.73,134.05,
06/01/2021,01:10:16.28,11.72,-1107.91,581.54,164.70,-301.65,31.16,-153.75,-62.70,-35.55,32.73,134.05,
06/01/2021,01:10:16.28,44.92,-1001.46,573.73,164.33,-278.05,26.77,-155.25,-61.20,-34.50,32.73,134.05,
06/01/2021,01:10:16.29,145.51,-950.20,608.40,161.22,-253.35,22.07,-155.25,-61.20,-34.50,32.77,134.05,
06/01/2021,01:10:16.29,269.04,-884.77,641.11,159.15,-233.66,13.54,-154.20,-60.45,-35.25,32.58,134.05,
06/01/2021,01:10:16.30,455.08,-891.60,640.14,156.77,-216.28,0.91,-154.20,-60.45,-35.25,32.39,134.05,
06/01/2021,01:10:16.31,496.58,-822.27,581.54,148.29,-233.35,-14.39,-158.85,-58.65,-33.60,32.44,134.05,
06/01/2021,01:10:16.32,478.03,-780.27,539.55,149.70,-243.11,-5.55,-158.85,-58.65,-33.60,32.82,134.05,
06/01/2021,01:10:16.32,415.53,-737.30,523.93,152.20,-253.84,3.66,-158.85,-59.10,-32.85,32.63,134.05,
06/01/2021,01:10:16.33,296.88,-674.80,494.14,154.45,-264.45,14.33,-158.85,-59.10,-32.85,32.77,134.05,
06/01/2021,01:10:16.33,163.09,-609.86,461.43,152.68,-272.20,26.40,-158.85,-59.10,-32.85,32.44,134.05,
06/01/2021,01:10:16.35,-289.55,-377.44,235.35,158.05,-290.37,73.29,-162.30,-57.00,-31.95,32.53,134.05,
06/01/2021,01:10:16.35,-166.50,-327.64,-128.42,151.71,-293.17,83.23,-162.30,-57.00,-31.95,32.58,134.05,
06/01/2021,01:10:16.36,76.66,-332.03,-293.46,141.16,-284.27,87.01,-162.30,-57.00,-31.95,32.73,134.05,
06/01/2021,01:10:16.36,146.48,-362.79,-271.00,135.37,-269.63,87.38,-162.30,-57.00,-31.95,32.44,134.05,
06/01/2021,01:10:16.37,-39.06,-455.08,-199.22,129.94,-259.39,92.74,-163.65,-56.40,-33.60,32.44,134.05,
06/01/2021,01:10:16.38,-201.66,-682.62,-471.19,123.05,-253.96,142.87,-165.15,-54.90,-30.30,32.63,134.05,
06/01/2021,01:10:16.39,-122.56,-657.71,-593.26,110.79,-233.11,149.15,-167.10,-54.30,-30.75,32.53,134.05,
06/01/2021,01:10:16.39,-89.36,-595.70,-615.72,103.96,-203.60,150.12,-167.10,-54.30,-30.75,32.58,134.05,
06/01/2021,01:10:16.40,-152.83,-549.32,-545.90,102.44,-177.68,145.55,-166.05,-54.60,-31.95,32.73,134.05,
06/01/2021,01:10:16.40,-228.03,-525.39,-451.17,97.38,-149.57,150.55,-166.05,-54.60,-31.95,32.73,134.05,
06/01/2021,01:10:16.46,397.95,-944.82,-300.78,6.95,-62.80,235.00,-167.10,-56.25,-31.20,32.82,134.04,
06/01/2021,01:10:16.48,603.52,-1011.23,-291.99,-9.15,-96.71,251.71,-167.10,-56.25,-31.20,32.58,134.04,
06/01/2021,01:10:16.48,643.07,-1038.57,-262.70,-14.33,-105.61,257.87,-167.10,-56.25,-31.20,32.58,134.04,
06/01/2021,01:10:16.49,676.76,-1032.23,-236.82,-16.46,-125.61,260.06,-166.35,-58.95,-31.50,32.63,134.04,
06/01/2021,01:10:16.49,687.99,-1051.27,-201.66,-20.49,-142.38,263.41,-166.35,-58.95,-31.50,32.53,134.04,
06/01/2021,01:10:16.51,670.41,-1048.83,-58.11,-29.33,-184.70,275.61,-168.45,-59.10,-31.80,32.58,134.04,
06/01/2021,01:10:16.51,659.18,-1051.76,-18.07,-34.09,-196.22,278.11,-168.45,-59.10,-31.80,32.92,134.04,
06/01/2021,01:10:16.51,625.49,-1058.59,17.09,-32.13,-210.67,281.71,-165.30,-60.90,-34.50,32.63,134.04,
06/01/2021,01:10:16.52,584.47,-1062.99,59.57,-29.15,-222.38,282.62,-165.30,-60.90,-34.50,32.58,134.04,
06/01/2021,01:10:16.53,459.47,-1119.63,153.81,-27.93,-244.39,286.89,-166.20,-64.50,-35.40,32.58,134.04,
06/01/2021,01:10:16.54,423.83,-1135.25,154.79,-27.38,-251.16,288.72,-166.20,-64.50,-35.40,32.73,134.04,
06/01/2021,01:10:16.54,426.76,-1187.99,160.16,-24.51,-253.78,287.74,-166.50,-63.30,-35.10,32.58,134.04,
06/01/2021,01:10:16.55,424.80,-1186.04,140.62,-25.85,-254.21,284.76,-166.50,-63.30,-35.10,32.73,134.04,
06/01/2021,01:10:16.55,441.41,-1212.40,111.82,-23.72,-250.91,285.98,-166.50,-63.30,-35.10,32.58,134.04,
06/01/2021,01:10:16.57,504.88,-1289.55,-0.98,-21.83,-253.90,274.51,-166.20,-65.70,-37.65,32.63,134.04,
06/01/2021,01:10:16.57,527.34,-1310.06,-41.02,-22.74,-254.88,271.89,-166.20,-65.70,-37.65,32.58,134.04,
06/01/2021,01:10:16.58,536.62,-1327.64,-57.62,-23.54,-252.01,266.83,-166.20,-65.70,-37.65,32.58,134.04,
06/01/2021,01:10:16.58,560.06,-1332.52,-87.89,-22.20,-252.74,259.82,-166.20,-65.70,-37.65,32.63,134.04,
06/01/2021,01:10:16.59,604.00,-1321.78,-76.66,-25.98,-249.51,252.56,-164.10,-66.60,-38.85,32.73,134.04,
06/01/2021,01:10:16.63,671.88,-1104.49,194.34,-17.38,-241.65,205.37,-163.20,-66.45,-39.75,32.73,134.04,
06/01/2021,01:10:16.63,677.73,-1105.96,202.64,-15.61,-241.77,199.45,-163.20,-66.45,-39.75,32.77,134.04,
06/01/2021,01:10:16.63,709.47,-1093.26,169.92,-16.52,-238.17,189.51,-161.25,-65.85,-42.45,32.58,134.04,
06/01/2021,01:10:16.64,769.04,-1090.82,174.32,-13.35,-236.04,176.77,-161.25,-65.85,-42.45,32.77,134.04,
06/01/2021,01:10:16.64,777.34,-1101.56,174.80,-12.07,-231.65,164.21,-161.25,-65.85,-42.45,32.82,134.04,
06/01/2021,01:10:16.66,831.05,-1065.43,125.49,-8.90,-212.80,127.74,-162.75,-65.85,-42.15,32.63,134.04,
06/01/2021,01:10:16.66,841.80,-1037.60,121.58,-9.15,-201.22,113.54,-162.75,-65.85,-42.15,32.63,134.04,
06/01/2021,01:10:16.67,823.24,-1015.14,119.63,-7.20,-191.10,99.27,-162.75,-65.40,-42.45,32.77,134.04,
06/01/2021,01:10:16.67,873.54,-962.40,137.21,-6.65,-179.39,84.21,-162.75,-65.40,-42.45,32.63,134.04,
06/01/2021,01:10:16.68,913.57,-942.38,155.76,-8.17,-169.21,67.13,-160.65,-65.70,-42.00,32.63,134.04,
06/01/2021,01:10:16.69,986.82,-916.02,212.40,-2.38,-138.17,12.80,-160.80,-65.10,-42.90,32.63,134.04,
06/01/2021,01:10:16.70,954.10,-913.09,275.88,1.28,-127.87,-1.89,-160.80,-65.10,-42.90,32.73,134.04,
06/01/2021,01:10:16.70,944.82,-898.93,417.48,4.33,-115.12,-16.10,-160.80,-65.10,-42.90,32.73,134.04,
06/01/2021,01:10:16.71,895.02,-860.84,733.89,14.15,-99.33,-30.00,-163.20,-64.50,-43.80,32.63,134.04,
06/01/2021,01:10:16.71,691.41,-867.68,979.00,22.80,-84.33,-46.65,-163.20,-64.50,-43.80,32.82,134.04,
06/01/2021,01:10:16.73,-837.40,-1274.90,830.57,29.94,-152.62,-23.90,-163.95,-64.50,-41.55,32.77,134.04,
06/01/2021,01:10:16.73,-1158.20,-1324.71,583.98,35.24,-147.68,-16.89,-163.95,-64.50,-41.55,32.73,134.04,
06/01/2021,01:10:16.73,-1377.44,-1346.19,406.25,43.29,-115.73,-21.52,-164.55,-63.90,-42.15,32.73,134.04,
06/01/2021,01:10:16.74,-1440.92,-1322.75,274.90,37.32,-57.80,-29.02,-164.55,-63.90,-42.15,32.58,134.04,
06/01/2021,01:10:16.74,-1300.29,-1244.14,276.37,29.82,10.67,-40.91,-164.55,-63.90,-42.15,32.58,134.04,
06/01/2021,01:10:16.76,16.60,-970.21,470.21,10.85,162.62,-83.84,-165.90,-64.05,-42.00,32.73,134.04,
06/01/2021,01:10:16.76,360.35,-1059.57,432.13,1.59,163.23,-93.66,-165.90,-64.05,-42.00,32.63,134.04,
06/01/2021,01:10:16.77,627.44,-1129.39,474.12,-1.83,140.91,-99.82,-164.40,-64.50,-42.00,32.73,134.04,
06/01/2021,01:10:16.77,767.09,-1081.05,496.58,3.48,108.96,-102.50,-164.40,-64.50,-42.00,32.58,134.04,
06/01/2021,01:10:16.78,785.16,-986.82,523.93,15.85,76.16,-96.46,-164.70,-63.30,-44.85,32.73,134.04,
06/01/2021,01:10:16.80,367.19,-841.31,307.13,26.65,-33.96,-54.02,-164.70,-63.00,-42.30,32.63,134.04,
06/01/2021,01:10:16.80,308.59,-901.86,274.90,28.84,-38.72,-48.96,-164.70,-63.00,-42.30,32.58,134.04,
06/01/2021,01:10:16.81,233.89,-912.11,279.79,28.41,-44.33,-45.12,-166.80,-62.70,-43.65,32.63,134.04,
06/01/2021,01:10:16.81,133.79,-918.95,289.55,31.22,-40.00,-35.91,-166.80,-62.70,-43.65,32.77,134.04,
06/01/2021,01:10:16.82,70.80,-958.01,297.36,30.98,-35.55,-34.15,-166.80,-62.70,-43.65,32.73,134.04,
06/01/2021,01:10:16.83,37.60,-1015.14,248.05,22.80,-6.46,-31.16,-166.95,-63.30,-41.55,32.58,134.04,
06/01/2021,01:10:16.84,31.25,-1017.09,241.70,22.26,-0.67,-31.34,-165.30,-61.65,-43.65,32.77,134.04,
06/01/2021,01:10:16.84,42.48,-982.91,249.51,22.93,7.01,-34.21,-165.30,-61.65,-43.65,32.44,134.04,
06/01/2021,01:10:16.84,59.57,-963.38,276.86,24.88,8.72,-32.74,-165.15,-60.60,-42.00,32.39,134.04,
06/01/2021,01:10:16.85,88.38,-971.68,302.25,24.82,10.30,-33.35,-165.15,-60.60,-42.00,32.73,134.04,
06/01/2021,01:10:16.87,141.11,-978.03,364.75,26.77,0.61,-32.07,-165.60,-61.65,-43.20,32.58,134.04,
06/01/2021,01:10:16.87,144.53,-987.79,360.84,28.17,-5.12,-29.33,-165.60,-61.65,-43.20,32.29,134.04,
06/01/2021,01:10:16.87,148.93,-975.10,385.74,29.27,-11.71,-24.21,-165.60,-61.65,-43.20,32.73,134.04,
06/01/2021,01:10:16.88,164.55,-970.70,405.76,30.30,-18.17,-23.96,-165.60,-63.90,-42.45,32.53,134.05,
06/01/2021,01:10:16.88,145.51,-957.03,398.44,33.54,-23.41,-17.99,-165.60,-63.90,-42.45,32.77,134.05,
06/01/2021,01:10:16.90,124.02,-956.05,394.04,33.96,-38.66,-10.30,-165.60,-61.20,-41.40,32.58,134.04,
06/01/2021,01:10:16.90,90.33,-951.66,386.23,36.28,-37.80,-7.80,-165.60,-61.20,-41.40,32.58,134.04,
06/01/2021,01:10:16.91,65.92,-958.50,381.84,34.02,-39.57,-10.06,-167.55,-61.20,-42.15,32.73,134.05,
06/01/2021,01:10:16.91,55.18,-962.89,386.72,35.00,-37.80,-6.77,-167.55,-61.20,-42.15,32.58,134.05,
06/01/2021,01:10:16.92,35.64,-957.52,378.42,33.05,-36.28,-8.23,-167.55,-61.20,-42.15,32.73,134.05,
06/01/2021,01:10:16.98,166.50,-939.45,431.15,18.48,-26.10,0.55,-167.25,-61.05,-39.45,32.63,134.04,
06/01/2021,01:10:16.99,148.44,-920.90,429.69,15.37,-40.37,3.11,-167.25,-61.05,-39.45,32.73,134.04,
06/01/2021,01:10:17.00,122.56,-926.76,430.18,16.71,-41.89,7.32,-166.80,-60.90,-40.35,32.73,134.04,
06/01/2021,01:10:17.00,106.93,-931.15,411.13,17.07,-46.40,7.93,-166.80,-60.90,-40.35,32.63,134.04,
06/01/2021,01:10:17.01,95.70,-918.95,415.53,17.50,-49.09,8.05,-166.20,-59.85,-41.25,32.58,134.04,
06/01/2021,01:10:17.02,55.18,-943.85,420.90,15.49,-43.84,9.21,-167.25,-60.60,-41.25,32.58,134.04,
06/01/2021,01:10:17.03,52.25,-948.73,423.34,12.74,-44.51,11.28,-169.20,-59.55,-41.25,32.58,134.04,
06/01/2021,01:10:17.03,29.30,-949.22,436.52,12.44,-37.38,5.55,-169.20,-59.55,-41.25,32.63,134.04,
06/01/2021,01:10:17.04,27.83,-930.18,424.32,11.71,-38.66,6.89,-169.20,-59.55,-41.25,32.44,134.04,
06/01/2021,01:10:17.04,15.62,-922.85,433.11,13.29,-36.59,3.54,-169.20,-59.55,-41.25,32.77,134.04,
06/01/2021,01:10:17.05,12.70,-923.83,453.12,8.78,-34.09,2.01,-167.25,-58.65,-41.25,32.58,134.04,
06/01/2021,01:10:17.06,13.18,-927.73,466.80,9.21,-29.39,0.12,-167.55,-59.25,-41.40,32.44,134.04,
06/01/2021,01:10:17.06,18.07,-918.46,463.38,7.99,-30.00,-0.30,-167.55,-59.25,-41.40,32.73,134.04,
06/01/2021,01:10:17.07,22.46,-921.88,452.64,6.95,-32.38,-1.34,-168.45,-59.85,-42.00,32.73,134.04,
06/01/2021,01:10:17.07,29.79,-910.64,455.57,7.01,-31.95,-2.68,-168.45,-59.85,-42.00,32.39,134.04,
06/01/2021,01:10:17.08,16.11,-918.95,459.96,7.80,-31.65,-0.85,-166.95,-60.60,-41.55,32.63,134.04,
06/01/2021,01:10:17.09,-30.27,-924.80,452.64,6.34,-37.20,-5.55,-166.95,-60.60,-41.55,32.58,134.04,
06/01/2021,01:10:17.10,-12.21,-923.83,442.87,7.01,-36.10,-6.65,-168.90,-60.00,-38.85,32.73,134.04,
06/01/2021,01:10:17.10,-35.64,-922.85,437.50,7.26,-31.71,-7.56,-168.90,-60.00,-38.85,32.77,134.04,
06/01/2021,01:10:17.11,-32.71,-934.08,431.64,8.48,-31.52,-10.67,-167.70,-58.65,-40.95,32.58,134.04,
06/01/2021,01:10:17.11,-21.00,-906.74,438.96,8.11,-29.94,-12.07,-167.70,-58.65,-40.95,32.73,134.04,
06/01/2021,01:10:17.13,-35.16,-917.48,452.64,9.45,-15.43,-17.07,-168.60,-58.20,-40.65,32.63,134.04,
06/01/2021,01:10:17.13,-22.95,-927.73,442.87,8.72,-13.35,-20.18,-168.60,-58.20,-40.65,32.63,134.04,
06/01/2021,01:10:17.14,-1.95,-930.66,440.92,7.68,-15.73,-21.89,-168.60,-58.20,-40.65,32.63,134.04,
06/01/2021,01:10:17.14,40.53,-925.29,424.32,9.82,-12.26,-25.49,-168.60,-58.20,-40.65,32.63,134.04,
06/01/2021,01:10:17.14,57.13,-923.83,404.79,12.50,-12.07,-23.54,-168.60,-58.20,-40.65,32.39,134.04,
06/01/2021,01:10:17.16,112.30,-900.88,416.99,13.05,-10.12,-28.29,-169.35,-59.25,-41.10,32.63,134.04,
06/01/2021,01:10:17.16,119.14,-906.25,415.04,14.21,-11.52,-25.37,-169.35,-59.25,-41.10,32.73,134.04,
06/01/2021,01:10:17.17,107.91,-897.95,428.71,17.93,-11.83,-25.49,-170.10,-58.50,-41.40,32.58,134.04,
06/01/2021,01:10:17.17,109.38,-897.46,438.96,16.77,-8.66,-24.51,-170.10,-58.50,-41.40,32.63,134.04,
06/01/2021,01:10:17.18,104.98,-901.37,421.88,16.95,-9.82,-27.07,-168.75,-58.35,-43.05,32.44,134.04,
06/01/2021,01:10:17.19,130.86,-921.88,431.15,19.27,-4.27,-31.52,-169.35,-58.20,-40.65,32.39,134.04,
06/01/2021,01:10:17.20,136.72,-916.99,440.92,19.88,-5.91,-29.15,-169.95,-60.30,-39.75,32.73,134.04,
06/01/2021,01:10:17.20,148.44,-917.97,445.31,20.12,-6.22,-31.34,-169.95,-60.30,-39.75,32.82,134.04,
06/01/2021,01:10:17.21,180.18,-925.29,433.59,19.09,-9.76,-30.91,-169.95,-60.30,-39.75,32.73,134.04,
06/01/2021,01:10:17.21,221.19,-931.15,424.32,19.88,-11.22,-31.65,-169.95,-60.30,-39.75,32.73,134.04,
06/01/2021,01:10:17.23,256.84,-954.10,419.43,22.87,-26.40,-28.72,-171.60,-58.95,-39.90,32.82,134.04,
06/01/2021,01:10:17.23,239.75,-956.54,427.25,22.62,-32.44,-27.38,-171.60,-58.95,-39.90,32.53,134.04,
06/01/2021,01:10:17.24,212.89,-943.36,432.13,26.22,-36.65,-22.26,-170.25,-58.95,-39.90,32.77,134.04,
06/01/2021,01:10:17.24,205.57,-942.38,397.95,25.00,-35.85,-24.21,-170.25,-58.35,-42.30,32.44,134.04,
06/01/2021,01:10:17.25,186.52,-928.71,408.69,25.06,-35.00,-28.54,-170.25,-58.35,-42.30,32.77,134.04,
06/01/2021,01:10:17.26,146.00,-905.27,444.34,24.57,-31.71,-26.83,-169.50,-57.15,-40.50,32.73,134.04,
06/01/2021,01:10:17.26,154.79,-919.43,447.75,25.06,-32.93,-27.68,-169.50,-57.15,-40.50,32.58,134.04,
06/01/2021,01:10:17.27,147.95,-916.50,449.71,26.52,-31.10,-30.85,-169.35,-57.75,-40.65,32.58,134.04,
06/01/2021,01:10:17.27,157.23,-910.16,462.89,26.65,-30.67,-29.82,-169.35,-57.75,-40.65,32.58,134.04,
06/01/2021,01:10:17.28,155.27,-927.25,459.47,27.13,-32.99,-31.83,-170.70,-57.60,-42.00,32.73,134.04,
06/01/2021,01:10:17.29,201.17,-920.41,454.59,29.94,-35.37,-34.39,-169.95,-57.90,-40.95,32.73,134.04,
06/01/2021,01:10:17.30,181.15,-928.71,458.98,27.87,-36.71,-31.71,-171.45,-57.90,-41.55,32.82,134.04,
06/01/2021,01:10:17.30,186.04,-929.20,458.50,31.40,-38.41,-34.76,-171.45,-57.90,-41.55,32.82,134.04,
06/01/2021,01:10:17.31,182.62,-928.22,474.12,31.04,-40.00,-35.43,-171.45,-57.90,-41.55,32.63,134.04,
06/01/2021,01:10:17.31,177.25,-935.55,467.29,34.45,-42.13,-34.33,-171.45,-57.90,-41.55,32.73,134.04,
06/01/2021,01:10:17.33,194.82,-933.59,456.54,38.90,-42.93,-40.49,-171.45,-55.65,-40.50,32.82,134.04,
06/01/2021,01:10:17.33,222.66,-950.68,448.24,38.48,-42.07,-40.98,-171.45,-55.65,-40.50,32.58,134.04,
06/01/2021,01:10:17.34,230.96,-978.52,447.27,42.01,-42.26,-40.85,-172.65,-55.05,-40.65,32.53,134.04,
06/01/2021,01:10:17.34,254.88,-971.68,465.82,44.39,-42.68,-43.72,-172.65,-55.05,-40.65,32.53,134.04,
06/01/2021,01:10:17.35,275.88,-987.79,441.41,45.12,-43.60,-45.30,-172.65,-55.05,-40.65,32.73,134.04,
06/01/2021,01:10:17.36,331.05,-1074.22,415.53,48.48,-59.70,-49.70,-172.35,-56.55,-42.45,32.73,134.04,
06/01/2021,01:10:17.37,307.13,-1106.45,419.92,46.22,-63.54,-51.16,-172.35,-56.55,-42.45,32.73,134.04,
06/01/2021,01:10:17.37,284.67,-1161.13,456.54,46.16,-71.65,-55.98,-173.55,-55.20,-41.25,32.58,134.04,
06/01/2021,01:10:17.37,266.11,-1201.17,456.05,48.11,-73.78,-59.21,-173.55,-55.20,-41.25,32.73,134.05,
06/01/2021,01:10:17.38,219.73,-1203.61,479.49,48.41,-79.70,-61.52,-173.55,-55.20,-41.25,32.44,134.05,
06/01/2021,01:10:17.40,195.31,-1208.01,416.99,57.99,-88.90,-73.41,-175.50,-54.00,-42.75,32.44,134.04,
06/01/2021,01:10:17.40,179.69,-1224.61,370.61,60.00,-93.05,-75.30,-175.50,-54.00,-42.75,32.63,134.04,
06/01/2021,01:10:17.41,183.11,-1247.07,360.35,64.45,-95.06,-77.38,-174.00,-54.00,-42.00,32.58,134.04,
06/01/2021,01:10:17.41,183.11,-1290.04,350.10,63.54,-97.50,-79.82,-174.00,-54.00,-42.00,32.58,134.05,
06/01/2021,01:10:17.42,195.31,-1324.22,333.01,66.89,-99.88,-82.20,-175.20,-51.60,-41.85,32.73,134.05,
06/01/2021,01:10:17.43,242.19,-1421.88,283.69,70.67,-109.39,-84.33,-175.20,-51.60,-41.85,32.58,134.04,
06/01/2021,01:10:17.44,236.82,-1460.45,287.11,71.71,-116.83,-83.84,-175.20,-51.60,-41.85,32.73,134.04,
06/01/2021,01:10:17.49,213.87,-1250.00,488.77,89.09,-105.43,-90.67,-179.85,-47.85,-45.30,32.53,134.04,
06/01/2021,01:10:17.50,493.65,-1176.76,594.73,77.26,-64.09,-113.66,-177.75,-47.55,-43.50,32.58,134.04,
06/01/2021,01:10:17.51,485.35,-1174.80,615.23,74.57,-68.90,-113.41,-179.70,-44.25,-45.75,32.58,134.04,
06/01/2021,01:10:17.52,539.06,-1058.59,523.93,74.27,-127.44,-106.46,-179.85,-44.40,-44.10,32.73,134.04,
06/01/2021,01:10:17.53,477.05,-1022.95,493.65,71.10,-146.34,-97.07,-179.85,-44.40,-44.10,32.53,134.04,
06/01/2021,01:10:17.53,368.65,-965.82,457.03,70.06,-163.29,-84.63,-179.85,-44.40,-44.10,32.63,134.04,
06/01/2021,01:10:17.54,268.55,-903.32,405.76,66.71,-172.68,-71.77,-179.85,-44.40,-44.10,32.39,134.04,
06/01/2021,01:10:17.54,188.48,-862.79,387.70,65.06,-174.15,-66.46,-179.55,-41.25,-47.85,32.73,134.04,
06/01/2021,01:10:17.56,125.49,-607.91,386.72,57.44,-136.04,-51.28,-179.10,-40.20,-48.15,32.77,134.04,
06/01/2021,01:10:17.56,118.65,-489.26,447.75,55.91,-113.17,-46.95,-181.95,-41.85,-48.00,32.73,134.04,
06/01/2021,01:10:17.57,104.49,-402.83,373.54,54.33,-91.83,-38.72,-181.95,-41.85,-48.00,32.82,134.04,
06/01/2021,01:10:17.57,63.96,-397.46,417.97,44.63,-78.23,-30.12,-181.80,-39.75,-48.90,32.53,134.04,
06/01/2021,01:10:17.57,105.47,-324.71,463.87,48.78,-81.52,-24.63,-181.80,-39.75,-48.90,32.58,134.04,
06/01/2021,01:10:17.59,0.98,-432.13,-103.03,26.52,-115.67,19.57,-182.10,-39.30,-49.65,32.58,134.04,
06/01/2021,01:10:17.59,-48.83,-497.07,-234.38,14.27,-134.45,39.63,-182.10,-39.30,-49.65,32.53,134.04,
06/01/2021,01:10:17.60,-100.59,-578.61,-364.26,7.44,-149.70,59.09,-182.10,-39.30,-49.65,32.63,134.04,
06/01/2021,01:10:17.60,-125.00,-632.81,-484.38,1.77,-147.99,74.76,-182.10,-39.30,-49.65,32.44,134.04,
06/01/2021,01:10:17.61,-161.13,-645.02,-524.41,-2.07,-143.11,83.11,-182.70,-37.20,-49.80,32.58,134.04,
06/01/2021,01:10:17.62,-278.81,-623.54,-508.79,-23.23,-74.51,90.98,-182.55,-39.30,-51.90,32.73,134.04,
06/01/2021,01:10:17.63,-286.62,-596.68,-439.94,-32.38,-50.98,91.77,-183.45,-39.90,-51.60,32.58,134.04,
06/01/2021,01:10:17.63,-272.95,-593.75,-383.30,-40.67,-23.78,100.98,-183.45,-39.90,-51.60,32.73,134.04,
06/01/2021,01:10:17.64,-266.60,-590.33,-306.15,-50.24,-4.45,107.26,-180.75,-39.90,-51.60,32.29,134.04,
06/01/2021,01:10:17.64,-242.19,-583.98,-253.42,-57.50,11.34,118.29,-180.75,-38.85,-51.00,32.58,134.04,
06/01/2021,01:10:17.66,-130.86,-661.62,-176.76,-84.09,37.07,140.55,-180.75,-38.85,-51.00,32.58,134.04,
06/01/2021,01:10:17.66,-85.45,-687.99,-142.58,-88.17,44.76,149.70,-183.00,-39.90,-51.60,32.63,134.04,
06/01/2021,01:10:17.67,-38.09,-709.96,-86.91,-92.74,45.12,155.00,-183.00,-39.90,-51.60,32.73,134.04,
06/01/2021,01:10:17.67,8.79,-739.26,-37.60,-100.79,51.71,160.18,-183.45,-39.15,-52.05,32.58,134.04,
06/01/2021,01:10:17.68,38.09,-748.54,-0.98,-106.04,50.24,166.46,-183.45,-39.15,-52.05,32.77,134.04,
06/01/2021,01:10:17.69,97.66,-824.22,76.66,-119.51,38.84,187.93,-185.10,-42.15,-50.70,32.58,134.04,
06/01/2021,01:10:17.69,125.98,-857.42,82.52,-122.99,39.39,197.74,-185.10,-42.15,-50.70,32.73,134.04,
06/01/2021,01:10:17.70,147.95,-867.68,97.17,-126.34,33.35,201.34,-185.10,-42.15,-50.70,32.58,134.04,
06/01/2021,01:10:17.70,158.69,-876.95,96.68,-130.06,25.91,207.62,-185.10,-42.15,-50.70,32.58,134.04,
06/01/2021,01:10:17.71,180.18,-906.25,106.93,-133.11,26.04,212.93,-182.25,-44.55,-51.00,32.73,134.04,
06/01/2021,01:10:17.72,310.06,-996.58,135.25,-136.40,5.79,232.50,-183.75,-45.30,-50.25,32.63,134.04,
06/01/2021,01:10:17.73,333.98,-1021.48,138.18,-137.38,-2.62,235.73,-185.10,-47.55,-50.40,32.63,134.04,
06/01/2021,01:10:17.73,354.98,-1065.92,178.71,-137.87,-8.11,240.37,-185.10,-47.55,-50.40,32.39,134.04,
06/01/2021,01:10:17.74,337.89,-1085.45,193.85,-134.88,-18.54,245.30,-184.20,-48.45,-49.80,32.73,134.04,
06/01/2021,01:10:17.74,331.54,-1105.96,216.31,-138.78,-24.39,246.28,-184.20,-48.45,-49.80,32.73,134.04,
06/01/2021,01:10:17.76,220.70,-1189.45,275.39,-135.73,-32.32,264.70,-183.75,-48.90,-51.00,32.73,134.04,
06/01/2021,01:10:17.76,204.10,-1220.21,287.11,-134.76,-27.80,264.45,-186.45,-52.35,-50.55,32.73,134.04,
06/01/2021,01:10:17.77,205.57,-1246.09,309.57,-132.13,-26.16,267.68,-186.45,-52.35,-50.55,32.73,134.04,
06/01/2021,01:10:17.77,195.31,-1270.02,337.40,-132.01,-18.90,266.71,-186.45,-52.35,-50.55,32.73,134.04,
06/01/2021,01:10:17.78,210.94,-1295.90,366.21,-131.59,-14.21,265.85,-186.45,-52.35,-50.55,32.73,134.04,
06/01/2021,01:10:17.79,197.75,-1401.37,440.92,-126.71,15.30,262.38,-186.45,-56.25,-50.55,32.39,134.04,
06/01/2021,01:10:17.80,183.11,-1431.64,461.43,-123.72,28.54,260.61,-186.45,-56.25,-50.55,32.73,134.04,
06/01/2021,01:10:17.80,152.83,-1480.96,482.42,-122.80,45.79,258.78,-183.90,-57.90,-53.25,32.73,134.04,
06/01/2021,01:10:17.80,148.93,-1524.90,517.09,-119.02,63.84,255.30,-183.90,-57.90,-53.25,32.82,134.04,
06/01/2021,01:10:17.81,172.85,-1546.39,531.25,-116.28,82.87,253.41,-183.90,-58.65,-54.45,32.44,134.04,
06/01/2021,01:10:17.82,355.47,-1499.51,615.23,-113.60,143.35,227.44,-183.90,-58.65,-54.45,32.73,134.04,
06/01/2021,01:10:17.83,422.85,-1473.63,627.93,-109.57,158.66,212.38,-182.10,-61.80,-54.75,32.58,134.04,
06/01/2021,01:10:17.83,489.75,-1433.11,646.48,-109.63,168.90,202.26,-182.10,-61.80,-54.75,32.73,134.04,
06/01/2021,01:10:17.84,564.94,-1404.79,651.86,-108.72,175.73,190.67,-181.50,-63.15,-54.60,32.73,134.04,
06/01/2021,01:10:17.85,858.89,-1346.68,636.23,-107.32,163.48,154.27,-181.95,-65.85,-53.10,32.58,134.04,
06/01/2021,01:10:17.86,916.50,-1310.55,745.12,-100.55,155.79,144.51,-181.35,-65.25,-55.20,32.92,134.04,
06/01/2021,01:10:17.86,921.88,-1208.01,834.47,-94.88,146.95,136.04,-181.35,-65.25,-55.20,32.29,134.04,
06/01/2021,01:10:17.87,870.61,-1096.68,980.47,-83.29,138.78,124.39,-181.35,-65.25,-55.20,32.73,134.04,
06/01/2021,01:10:17.87,868.16,-982.91,1059.57,-75.85,122.56,114.15,-181.35,-65.25,-55.20,32.73,134.04,
06/01/2021,01:10:17.89,1059.57,-730.47,1169.92,-40.67,75.67,78.54,-178.05,-67.20,-52.95,32.77,134.04,
06/01/2021,01:10:17.89,1090.82,-661.13,1191.89,-29.27,61.52,67.50,-178.65,-66.30,-53.55,32.58,134.04,
06/01/2021,01:10:17.90,1095.70,-604.00,1174.80,-16.77,43.78,52.07,-178.65,-66.30,-53.55,32.58,134.04,
06/01/2021,01:10:17.90,1081.54,-584.47,1104.98,-5.18,27.38,42.44,-176.70,-67.80,-54.60,32.82,134.04,
06/01/2021,01:10:17.91,1073.73,-612.79,1031.25,4.63,15.37,29.82,-176.70,-67.80,-54.60,32.73,134.04,
06/01/2021,01:10:17.92,889.16,-702.64,855.47,32.50,10.98,-20.37,-177.00,-67.20,-54.45,32.58,134.04,
06/01/2021,01:10:17.93,813.96,-714.36,780.27,35.85,12.56,-34.45,-177.00,-67.20,-54.45,32.77,134.04,
06/01/2021,01:10:17.93,751.46,-764.65,644.53,37.50,12.32,-47.20,-176.25,-68.70,-54.75,32.58,134.04,
06/01/2021,01:10:17.93,825.68,-797.85,550.29,42.93,13.48,-58.48,-176.25,-68.70,-54.75,32.63,134.04,
06/01/2021,01:10:17.94,897.95,-844.24,420.41,47.44,27.56,-72.68,-176.25,-68.70,-54.75,32.58,134.05,
06/01/2021,01:10:17.99,-881.35,-1508.79,-362.30,33.96,114.82,-59.57,-179.85,-66.45,-52.20,32.73,134.04,
06/01/2021,01:10:18.00,1083.98,-1374.51,518.07,34.82,175.18,-107.07,-177.75,-65.70,-52.65,32.73,134.04,
06/01/2021,01:10:18.00,1440.43,-1481.45,591.80,28.05,146.95,-122.01,-177.75,-65.70,-52.65,32.63,134.04,
06/01/2021,01:10:18.01,1377.44,-1436.04,685.55,38.11,99.21,-126.77,-179.55,-64.95,-50.70,32.29,134.04,
06/01/2021,01:10:18.01,994.14,-1260.25,687.99,57.68,40.61,-115.43,-179.55,-64.95,-50.70,32.63,134.04,
06/01/2021,01:10:18.03,53.22,-962.40,393.07,97.32,-19.88,-80.18,-180.45,-65.85,-49.80,32.53,134.04,
06/01/2021,01:10:18.03,-123.54,-912.11,508.79,94.63,-5.24,-84.70,-180.45,-65.85,-49.80,32.92,134.04,
06/01/2021,01:10:18.04,-243.65,-959.47,545.41,89.21,7.20,-90.37,-180.45,-65.85,-49.80,32.63,134.04,
06/01/2021,01:10:18.04,-290.53,-1038.09,444.34,80.85,16.04,-94.51,-180.45,-65.85,-49.80,32.92,134.04,
06/01/2021,01:10:18.05,-202.15,-1083.01,395.02,75.43,18.48,-94.09,-180.45,-65.85,-49.80,32.44,134.04,
06/01/2021,01:10:18.06,191.89,-909.18,507.81,73.05,47.62,-80.67,-181.05,-61.80,-50.40,32.58,134.04,
06/01/2021,01:10:18.07,208.98,-876.95,436.04,68.11,53.41,-77.62,-181.05,-61.80,-50.40,32.39,134.04,
06/01/2021,01:10:18.07,196.78,-888.18,343.75,59.88,49.02,-74.57,-180.60,-62.55,-49.65,32.63,134.04,
06/01/2021,01:10:18.08,181.64,-891.60,267.09,59.27,42.87,-72.56,-180.60,-62.55,-49.65,32.39,134.04,
06/01/2021,01:10:18.08,205.57,-899.90,217.29,56.34,41.89,-68.66,-181.05,-63.00,-48.60,32.73,134.04,
06/01/2021,01:10:18.10,131.84,-1027.83,180.18,50.67,49.94,-61.77,-181.05,-63.00,-48.60,32.63,134.04,
06/01/2021,01:10:18.10,154.30,-1013.67,175.78,46.89,46.04,-58.11,-182.25,-60.45,-47.70,32.73,134.04,
06/01/2021,01:10:18.10,173.83,-1009.28,145.51,43.72,51.83,-53.66,-182.25,-60.45,-47.70,32.63,134.04,
06/01/2021,01:10:18.11,191.89,-1003.42,152.83,42.01,52.01,-53.35,-182.25,-60.45,-47.70,32.58,134.04,
06/01/2021,01:10:18.11,217.29,-1018.55,144.53,41.59,48.90,-49.39,-182.25,-60.45,-47.70,32.77,134.04,
06/01/2021,01:10:18.13,282.71,-1086.91,105.47,37.20,41.59,-53.60,-182.55,-59.10,-45.60,32.58,134.04,
06/01/2021,01:10:18.13,299.32,-1086.43,109.86,35.73,40.67,-53.05,-182.55,-59.10,-45.60,32.73,134.04,
06/01/2021,01:10:18.14,275.88,-1065.43,127.93,36.22,34.63,-49.82,-182.55,-59.10,-45.60,32.58,134.04,
06/01/2021,01:10:18.14,287.11,-1031.25,168.46,34.70,27.80,-48.90,-181.20,-59.25,-46.50,32.58,134.04,
06/01/2021,01:10:18.15,256.35,-1003.91,200.20,34.21,23.35,-46.22,-181.20,-59.25,-46.50,32.63,134.04,
06/01/2021,01:10:18.16,198.73,-956.05,271.48,30.37,1.83,-38.60,-181.80,-59.85,-46.80,32.77,134.04,
06/01/2021,01:10:18.17,165.04,-969.24,251.46,32.01,-2.56,-38.11,-181.80,-59.85,-46.80,32.73,134.04,
06/01/2021,01:10:18.17,129.39,-973.63,245.12,31.52,-0.61,-37.56,-181.95,-60.45,-45.75,32.25,134.04,
06/01/2021,01:10:18.18,122.07,-992.19,232.42,27.80,0.85,-37.80,-181.95,-60.45,-45.75,32.63,134.04,
06/01/2021,01:10:18.18,96.68,-992.68,201.66,24.45,3.72,-39.15,-181.80,-58.35,-46.80,32.77,134.04,
06/01/2021,01:10:18.19,111.33,-1000.98,191.41,24.94,9.82,-37.07,-181.80,-58.35,-46.80,32.53,134.04,
06/01/2021,01:10:18.20,152.83,-1004.39,184.08,19.63,21.16,-41.40,-180.75,-59.70,-45.15,32.58,134.04,
06/01/2021,01:10:18.20,200.20,-992.68,196.29,17.68,23.17,-41.10,-180.75,-59.70,-45.15,32.77,134.04,
06/01/2021,01:10:18.21,198.24,-999.51,201.66,16.59,25.49,-40.91,-180.75,-59.70,-45.15,32.63,134.04,
06/01/2021,01:10:18.21,214.36,-986.82,214.36,15.79,22.80,-43.78,-180.75,-59.70,-45.15,32.73,134.04,
06/01/2021,01:10:18.22,231.45,-992.68,226.07,15.61,21.89,-40.79,-181.20,-59.70,-45.15,32.73,134.04,
06/01/2021,01:10:18.23,272.46,-958.98,231.93,13.17,17.62,-34.15,-182.70,-58.20,-45.15,32.77,134.04,
06/01/2021,01:10:18.24,277.83,-932.13,250.49,13.41,16.95,-31.22,-182.70,-58.20,-45.15,32.73,134.04,
06/01/2021,01:10:18.24,287.60,-936.04,239.75,13.35,11.59,-29.94,-179.10,-56.40,-45.60,32.44,134.04,
06/01/2021,01:10:18.25,270.02,-956.54,253.42,13.96,5.18,-32.07,-179.10,-56.40,-45.60,32.82,134.04,
06/01/2021,01:10:18.25,264.16,-966.31,243.16,12.07,2.68,-30.55,-180.30,-57.15,-45.30,32.29,134.04,
06/01/2021,01:10:18.27,208.98,-987.30,227.05,10.06,-2.50,-25.49,-180.30,-57.15,-45.30,32.58,134.04,
06/01/2021,01:10:18.27,191.89,-979.49,231.45,9.51,-4.45,-25.43,-181.05,-56.70,-43.50,32.39,134.04,
06/01/2021,01:10:18.28,189.45,-957.03,235.84,10.55,0.18,-26.40,-181.05,-56.70,-43.50,32.63,134.04,
06/01/2021,01:10:18.28,185.06,-966.31,240.23,10.12,-1.16,-24.33,-181.80,-56.70,-44.10,32.44,134.04,
06/01/2021,01:10:18.29,189.45,-959.47,226.56,10.06,0.00,-27.20,-181.80,-56.70,-44.10,32.82,134.05,
06/01/2021,01:10:18.30,228.03,-934.57,214.36,10.85,4.09,-26.65,-183.45,-57.00,-43.65,32.58,134.04,
06/01/2021,01:10:18.30,238.77,-936.52,218.75,9.45,3.17,-23.78,-183.45,-57.00,-43.65,32.73,134.04,
06/01/2021,01:10:18.31,244.63,-937.50,208.01,7.93,4.45,-25.43,-183.45,-57.00,-43.65,32.63,134.04,
06/01/2021,01:10:18.31,251.95,-938.96,230.96,9.70,1.95,-27.62,-183.45,-57.00,-43.65,32.63,134.05,
06/01/2021,01:10:18.32,241.21,-941.89,224.12,9.33,2.01,-26.28,-183.45,-57.00,-43.65,32.77,134.05,
06/01/2021,01:10:18.33,238.28,-947.75,241.70,9.27,0.61,-25.06,-182.10,-54.45,-43.80,32.82,134.04,
06/01/2021,01:10:18.34,225.10,-973.14,245.61,6.77,-1.40,-26.16,-182.10,-54.45,-43.80,32.73,134.05,
06/01/2021,01:10:18.34,219.73,-974.12,238.77,9.51,0.37,-25.67,-181.95,-55.05,-44.40,32.44,134.05,
06/01/2021,01:10:18.35,219.73,-983.40,231.45,5.98,1.59,-26.65,-181.95,-55.05,-44.40,32.58,134.05,
06/01/2021,01:10:18.35,223.63,-970.21,239.75,6.22,1.46,-27.74,-181.50,-54.30,-45.45,32.58,134.05,
06/01/2021,01:10:18.37,232.91,-970.21,237.79,5.18,-3.35,-30.06,-183.00,-54.30,-42.90,32.58,134.05,
06/01/2021,01:10:18.37,231.45,-980.47,206.54,5.00,-4.70,-29.63,-182.85,-55.20,-44.85,32.73,134.05,
06/01/2021,01:10:18.38,233.89,-1002.93,209.96,6.28,-0.98,-31.52,-182.85,-55.20,-44.85,32.63,134.05,
06/01/2021,01:10:18.38,221.19,-1011.23,223.14,4.70,-1.59,-31.83,-182.85,-55.20,-44.85,32.63,134.05,
06/01/2021,01:10:18.38,222.66,-1011.23,240.23,3.84,-0.37,-36.77,-182.85,-55.20,-44.85,32.73,134.05,
06/01/2021,01:10:18.40,226.56,-995.12,208.98,3.66,0.18,-40.37,-183.60,-54.00,-43.80,32.63,134.05,
06/01/2021,01:10:18.40,228.03,-991.70,186.52,2.87,2.38,-41.77,-183.60,-54.00,-43.80,32.77,134.05,
06/01/2021,01:10:18.41,235.35,-995.61,172.85,3.23,3.29,-46.16,-183.60,-54.00,-43.80,32.73,134.05,
06/01/2021,01:10:18.41,218.75,-1009.28,186.04,4.27,5.73,-44.82,-182.10,-54.45,-45.60,32.58,134.05,
06/01/2021,01:10:18.42,243.16,-1009.77,192.87,5.24,4.21,-51.65,-182.10,-54.45,-45.60,32.63,134.05,
06/01/2021,01:10:18.43,262.70,-1030.76,215.33,2.32,7.87,-57.74,-180.15,-54.30,-45.75,32.63,134.05,
06/01/2021,01:10:18.44,277.34,-1033.69,230.96,0.55,7.50,-57.07,-180.15,-54.30,-45.75,32.92,134.05,
06/01/2021,01:10:18.44,271.97,-1022.95,232.42,2.20,8.23,-57.62,-182.55,-54.45,-44.10,32.39,134.05,
06/01/2021,01:10:18.45,265.62,-1022.46,229.00,1.77,7.80,-59.15,-182.55,-54.45,-44.10,32.73,134.05,
06/01/2021,01:10:18.45,295.90,-1041.99,238.28,-0.37,6.59,-61.65,-182.70,-53.55,-46.50,32.39,134.05,
06/01/2021,01:10:18.51,315.43,-1109.86,151.86,-8.17,11.71,-82.20,-184.35,-51.30,-44.10,32.29,134.04,
06/01/2021,01:10:18.53,308.59,-1103.52,194.82,-9.76,13.29,-89.39,-184.20,-50.40,-44.40,32.63,134.04,
06/01/2021,01:10:18.53,298.34,-1113.28,200.68,-14.70,13.11,-91.52,-182.25,-50.40,-45.15,32.58,134.04,
06/01/2021,01:10:18.54,294.92,-1103.52,209.47,-14.70,15.55,-92.26,-182.25,-50.40,-45.15,32.82,134.04,
06/01/2021,01:10:18.54,286.13,-1099.12,218.26,-15.73,16.10,-97.87,-183.45,-49.20,-45.15,32.73,134.04,
06/01/2021,01:10:18.56,273.44,-1159.67,257.32,-15.98,13.35,-108.23,-183.45,-49.20,-45.15,32.73,134.04,
06/01/2021,01:10:18.56,274.90,-1187.99,251.46,-17.32,13.41,-112.20,-183.45,-48.45,-43.95,32.73,134.04,
06/01/2021,01:10:18.57,253.91,-1244.14,271.48,-19.21,11.52,-115.98,-183.45,-48.45,-43.95,32.73,134.04,
06/01/2021,01:10:18.57,201.17,-1308.59,299.32,-20.79,11.04,-118.66,-183.75,-49.95,-45.15,32.77,134.04,
06/01/2021,01:10:18.57,190.92,-1353.03,320.80,-21.16,11.40,-120.67,-183.75,-49.95,-45.15,32.58,134.04,
06/01/2021,01:10:18.59,182.62,-1387.70,269.04,-19.21,4.51,-133.05,-184.35,-48.30,-43.80,32.53,134.04,
06/01/2021,01:10:18.59,201.66,-1380.86,233.89,-18.96,-0.98,-132.50,-184.35,-48.30,-43.80,32.39,134.04,
06/01/2021,01:10:18.60,241.21,-1379.39,193.85,-19.76,-3.84,-133.84,-184.35,-48.30,-43.80,32.63,134.04,
06/01/2021,01:10:18.60,233.89,-1404.30,180.18,-20.85,-13.29,-137.50,-184.35,-48.30,-43.80,32.44,134.04,
06/01/2021,01:10:18.61,240.72,-1445.31,179.20,-22.01,-13.72,-137.99,-184.35,-48.30,-43.80,32.63,134.04,
06/01/2021,01:10:18.63,29.30,-1492.19,103.03,-16.89,-18.72,-140.91,-185.10,-45.90,-44.10,32.39,134.04,
06/01/2021,01:10:18.63,-25.88,-1467.77,125.98,-18.72,-18.35,-142.20,-184.50,-45.30,-45.15,32.73,134.04,
06/01/2021,01:10:18.64,21.97,-1441.41,178.71,-20.24,-12.80,-150.30,-184.50,-45.30,-45.15,32.73,134.04,
06/01/2021,01:10:18.64,53.71,-1436.52,217.29,-18.48,-6.65,-155.06,-184.65,-45.60,-44.55,32.53,134.04,
06/01/2021,01:10:18.65,51.27,-1419.43,233.40,-23.11,-1.34,-166.40,-184.65,-45.60,-44.55,32.82,134.04,
06/01/2021,01:10:18.66,63.48,-1524.90,418.95,-26.95,-2.87,-183.17,-184.35,-43.20,-45.30,32.58,134.04,
06/01/2021,01:10:18.67,59.57,-1567.38,458.98,-31.46,3.23,-187.62,-184.35,-43.20,-45.30,32.44,134.04,
06/01/2021,01:10:18.67,-2.44,-1590.82,477.05,-31.46,16.83,-190.00,-184.35,-43.20,-45.30,32.73,134.04,
06/01/2021,01:10:18.67,-47.85,-1590.33,447.75,-35.91,27.62,-194.94,-184.35,-43.20,-45.30,32.63,134.04,
06/01/2021,01:10:18.68,-76.17,-1544.92,400.39,-39.94,38.17,-194.09,-184.35,-43.20,-45.30,32.58,134.04,
06/01/2021,01:10:18.70,-58.11,-1289.55,287.60,-50.06,74.94,-195.30,-184.35,-40.20,-43.05,32.39,134.04,
06/01/2021,01:10:18.70,-44.92,-1229.00,233.40,-54.02,89.15,-193.17,-184.35,-40.20,-43.05,32.58,134.04,
06/01/2021,01:10:18.70,-80.57,-1171.39,195.80,-59.57,97.20,-188.23,-182.25,-39.90,-43.65,32.63,134.04,
06/01/2021,01:10:18.71,-208.50,-1104.49,160.64,-63.05,101.52,-177.50,-182.25,-39.90,-43.65,32.58,134.04,
06/01/2021,01:10:18.71,-346.19,-1065.92,183.11,-67.80,96.40,-159.51,-183.60,-39.30,-44.85,32.58,134.04,
06/01/2021,01:10:18.73,-375.49,-785.16,282.23,-62.99,118.66,-108.66,-183.60,-39.30,-44.85,32.73,134.04,
06/01/2021,01:10:18.73,-238.28,-756.84,187.99,-67.99,141.28,-105.85,-181.80,-37.50,-42.30,32.63,134.04,
06/01/2021,01:10:18.74,-24.90,-741.70,191.89,-74.33,173.23,-107.80,-181.80,-37.50,-42.30,32.53,134.04,
06/01/2021,01:10:18.74,152.83,-695.80,328.12,-77.80,206.52,-114.39,-180.30,-37.50,-43.05,32.73,134.04,
06/01/2021,01:10:18.75,246.09,-646.00,414.55,-85.61,217.68,-120.24,-180.30,-37.50,-43.05,32.73,134.04,
06/01/2021,01:10:18.76,330.57,-525.88,607.91,-90.79,182.80,-71.22,-180.15,-36.90,-39.90,32.58,134.04,
06/01/2021,01:10:18.77,480.96,-496.09,613.28,-86.04,184.33,-63.78,-180.15,-36.90,-39.90,32.58,134.04,
06/01/2021,01:10:18.77,409.18,-508.79,645.02,-81.95,178.48,-62.13,-180.15,-36.90,-39.90,32.58,134.04,
06/01/2021,01:10:18.78,216.80,-492.68,633.30,-88.78,152.56,-53.96,-180.15,-36.90,-39.90,32.58,134.04,
06/01/2021,01:10:18.78,59.57,-498.54,529.30,-94.82,113.48,-42.50,-180.15,-36.90,-39.90,32.44,134.04,
06/01/2021,01:10:18.80,-249.51,-588.38,297.36,-106.77,59.63,27.44,-179.40,-35.70,-38.55,32.82,134.04,
06/01/2021,01:10:18.80,-228.52,-549.32,312.99,-107.87,49.94,41.04,-179.40,-35.70,-38.55,32.73,134.04,
06/01/2021,01:10:18.80,-172.36,-482.42,331.54,-106.04,53.66,45.55,-177.45,-38.40,-39.60,32.73,134.04,
06/01/2021,01:10:18.81,-120.61,-441.41,341.80,-107.74,57.93,49.57,-177.45,-38.40,-39.60,32.63,134.04,
06/01/2021,01:10:18.81,-118.65,-415.04,315.43,-112.38,64.82,52.62,-177.15,-37.65,-37.35,32.58,134.04,
06/01/2021,01:10:18.83,-28.32,-521.48,356.93,-134.45,78.11,86.71,-177.15,-37.65,-37.35,32.63,134.04,
06/01/2021,01:10:18.83,15.14,-548.34,387.21,-140.06,75.37,100.73,-178.20,-40.35,-36.00,32.73,134.04,
06/01/2021,01:10:18.84,37.60,-589.36,380.86,-142.74,71.59,112.07,-178.20,-40.35,-36.00,32.53,134.04,
06/01/2021,01:10:18.84,58.59,-624.02,374.02,-150.79,62.38,122.93,-175.95,-41.55,-38.10,32.63,134.04,
06/01/2021,01:10:18.85,51.76,-654.79,364.75,-152.50,57.62,131.71,-175.95,-41.55,-38.10,32.73,134.05,
06/01/2021,01:10:18.86,-18.55,-707.03,365.23,-160.18,39.57,157.87,-178.95,-43.80,-36.60,32.77,134.04,
06/01/2021,01:10:18.87,-43.46,-711.43,364.26,-162.56,34.82,168.84,-178.95,-43.80,-36.60,32.58,134.04,
06/01/2021,01:10:18.87,-58.11,-744.63,391.60,-163.78,36.04,176.28,-178.95,-43.80,-36.60,32.73,134.05,
06/01/2021,01:10:18.88,-39.55,-769.53,414.06,-165.12,41.59,186.52,-178.95,-43.80,-36.60,32.58,134.05,
06/01/2021,01:10:18.88,-22.46,-781.25,434.08,-164.63,50.43,191.28,-175.65,-44.55,-36.30,32.73,134.05,
06/01/2021,01:10:18.90,58.11,-863.28,587.89,-164.02,75.79,209.94,-175.65,-44.55,-36.30,32.82,134.04,
06/01/2021,01:10:18.90,98.14,-906.25,620.61,-167.50,82.93,217.32,-175.65,-44.55,-36.30,32.63,134.05,
06/01/2021,01:10:18.91,138.67,-940.43,647.46,-166.71,90.49,222.56,-176.55,-50.25,-36.45,32.53,134.05,
06/01/2021,01:10:18.91,162.60,-976.56,672.85,-165.37,98.96,229.39,-176.55,-50.25,-36.45,32.58,134.05,
06/01/2021,01:10:18.91,184.08,-1001.95,694.34,-161.95,104.94,232.20,-174.00,-51.30,-37.65,32.63,134.05,
06/01/2021,01:10:18.93,149.41,-1090.33,719.24,-152.68,145.00,233.72,-173.55,-52.20,-39.00,32.73,134.05,
06/01/2021,01:10:18.93,122.56,-1136.23,716.31,-149.70,158.72,234.39,-174.90,-54.60,-36.30,32.82,134.05,
06/01/2021,01:10:18.94,118.65,-1169.92,745.61,-150.61,170.12,236.34,-174.90,-54.60,-36.30,32.77,134.05,
06/01/2021,01:10:18.94,129.88,-1204.10,766.60,-147.87,183.96,233.72,-174.90,-54.60,-36.30,32.44,134.05,
06/01/2021,01:10:18.95,150.88,-1238.28,815.43,-150.79,199.82,230.30,-174.90,-54.60,-36.30,32.58,134.05,
06/01/2021,01:10:18.96,233.40,-1304.69,900.88,-146.59,225.55,234.51,-170.10,-57.75,-35.55,32.63,134.05,
06/01/2021,01:10:18.97,245.12,-1308.59,912.60,-146.28,231.83,234.63,-170.10,-57.75,-35.55,32.63,134.05,
06/01/2021,01:10:19.02,457.52,-1390.62,1241.21,-113.54,222.80,232.74,-161.70,-63.75,-35.70,32.73,134.04,
06/01/2021,01:10:19.03,604.49,-1291.02,1297.85,-96.16,186.77,227.68,-158.85,-63.30,-36.90,32.82,134.04,
06/01/2021,01:10:19.04,638.67,-1256.35,1304.69,-87.68,168.60,231.04,-158.85,-63.30,-36.90,32.39,134.04,
06/01/2021,01:10:19.05,749.02,-1151.86,1375.49,-55.91,111.28,226.46,-153.30,-63.75,-37.65,32.63,134.04,
06/01/2021,01:10:19.06,776.37,-1119.14,1302.25,-38.96,90.30,225.12,-153.30,-63.75,-37.65,32.58,134.04,
06/01/2021,01:10:19.06,1019.53,-1177.25,871.58,-48.72,36.95,226.40,-151.50,-63.60,-37.35,32.73,134.04,
06/01/2021,01:10:19.07,1545.41,-1307.13,843.26,-65.98,-12.74,220.24,-151.50,-63.60,-37.35,32.77,134.04,
06/01/2021,01:10:19.07,1781.74,-1258.79,835.94,-58.78,-40.06,205.67,-150.60,-64.05,-39.45,32.73,134.04,
06/01/2021,01:10:19.09,1175.78,-771.97,1148.93,-4.70,-87.44,183.05,-150.45,-63.60,-38.55,32.82,134.04,
06/01/2021,01:10:19.09,1185.06,-780.27,1031.74,3.29,-95.98,171.10,-150.45,-63.60,-38.55,32.73,134.04,
06/01/2021,01:10:19.10,1197.27,-821.29,971.68,11.52,-90.06,148.35,-150.45,-63.60,-38.55,32.63,134.04,
06/01/2021,01:10:19.10,1190.43,-817.38,984.86,17.87,-84.27,122.13,-148.95,-63.15,-40.35,32.63,134.04,
06/01/2021,01:10:19.12,1145.51,-781.25,844.24,46.10,-71.83,67.20,-148.95,-63.15,-40.35,32.73,134.04,
06/01/2021,01:10:19.12,1168.46,-766.11,764.65,51.71,-61.28,50.37,-148.95,-63.15,-40.35,32.44,134.04,
06/01/2021,01:10:19.13,1167.97,-754.39,658.69,58.96,-53.96,31.95,-148.80,-63.30,-40.20,32.82,134.04,
06/01/2021,01:10:19.13,1076.66,-791.99,485.84,61.71,-46.59,12.38,-148.80,-63.30,-40.20,32.73,134.04,
06/01/2021,01:10:19.14,1059.08,-814.45,407.71,65.67,-37.62,-5.79,-147.00,-63.30,-38.70,32.44,134.04,
06/01/2021,01:10:19.15,1067.38,-1048.34,-232.91,55.91,7.56,-61.34,-147.45,-62.70,-38.85,32.44,134.04,
06/01/2021,01:10:19.15,1134.77,-1207.03,-712.40,45.00,26.04,-76.16,-149.55,-63.30,-37.95,32.73,134.04,
06/01/2021,01:10:19.16,1348.14,-1420.41,-1101.07,28.90,58.78,-99.39,-149.55,-63.30,-37.95,32.58,134.04,
06/01/2021,01:10:19.16,1286.62,-1675.78,-1245.12,10.18,97.56,-120.85,-149.55,-63.30,-37.95,32.58,134.04,
06/01/2021,01:10:19.17,652.83,-1898.93,-1199.71,-8.41,102.20,-132.38,-149.55,-63.30,-37.95,32.58,134.04,
06/01/2021,01:10:19.18,-871.09,-1881.35,-594.73,51.95,48.05,-76.83,-149.70,-62.70,-38.85,32.63,134.04,
06/01/2021,01:10:19.19,-550.78,-1657.71,-307.62,61.40,68.84,-84.70,-149.70,-62.70,-38.85,32.63,134.04,
06/01/2021,01:10:19.19,-101.56,-1432.13,-4.88,56.40,99.76,-97.20,-147.90,-62.40,-38.55,32.44,134.04,
06/01/2021,01:10:19.20,333.01,-1271.00,207.52,52.07,120.06,-105.55,-147.90,-62.40,-38.55,32.63,134.04,
06/01/2021,01:10:19.20,727.05,-1156.74,359.38,51.40,124.09,-114.27,-148.65,-61.95,-38.85,32.58,134.04,
06/01/2021,01:10:19.22,465.82,-950.68,618.16,80.18,14.45,-99.82,-148.65,-61.95,-38.85,32.39,134.04,
06/01/2021,01:10:19.23,320.31,-900.88,653.81,88.54,6.04,-94.02,-149.85,-62.55,-36.15,32.58,134.04,
06/01/2021,01:10:19.23,155.27,-829.59,777.83,95.79,18.48,-91.59,-149.85,-62.55,-36.15,32.73,134.04,
06/01/2021,01:10:19.23,1.46,-914.55,802.73,90.06,29.82,-90.49,-148.65,-61.65,-37.80,32.73,134.04,
06/01/2021,01:10:19.24,-77.15,-1029.30,917.97,80.67,29.15,-91.59,-148.65,-61.65,-37.80,32.73,134.04,
06/01/2021,01:10:19.26,168.95,-1019.04,600.10,63.78,30.49,-91.77,-149.85,-61.35,-36.90,32.44,134.04,
06/01/2021,01:10:19.26,262.70,-931.15,517.09,63.48,21.22,-86.16,-149.85,-61.35,-36.90,32.73,134.04,
06/01/2021,01:10:19.26,406.74,-911.62,430.66,58.66,5.18,-82.93,-149.85,-61.35,-36.90,32.73,134.04,
06/01/2021,01:10:19.27,497.56,-946.78,436.52,51.28,-15.67,-76.16,-149.85,-61.35,-36.90,32.77,134.04,
06/01/2021,01:10:19.27,532.71,-954.59,405.76,47.56,-28.05,-71.59,-149.55,-61.35,-37.20,32.63,134.04,
06/01/2021,01:10:19.29,206.54,-1023.44,174.80,50.18,-44.82,-40.61,-151.05,-59.85,-36.90,32.44,134.04,
06/01/2021,01:10:19.29,132.81,-1045.90,124.51,47.56,-35.00,-37.80,-151.20,-60.90,-36.60,32.82,134.04,
06/01/2021,01:10:19.30,69.82,-1055.66,120.61,45.55,-24.45,-40.06,-151.20,-60.90,-36.60,32.73,134.04,
06/01/2021,01:10:19.30,12.21,-1059.57,118.16,42.38,-15.85,-35.61,-151.20,-60.90,-36.60,32.63,134.04,
06/01/2021,01:10:19.31,-30.27,-1052.25,116.21,42.13,-4.33,-37.13,-150.30,-60.30,-38.25,32.63,134.04,
06/01/2021,01:10:19.32,43.46,-999.51,153.81,34.82,25.61,-39.15,-151.05,-61.05,-35.70,32.73,134.04,
06/01/2021,01:10:19.33,56.64,-1021.48,180.18,34.15,27.26,-37.20,-152.10,-61.05,-35.10,32.73,134.04,
06/01/2021,01:10:19.33,68.85,-1024.90,209.96,36.83,31.77,-39.21,-152.10,-61.05,-35.10,32.73,134.04,
06/01/2021,01:10:19.33,82.52,-1030.27,222.17,36.71,33.78,-41.16,-152.10,-61.05,-35.10,32.63,134.04,
06/01/2021,01:10:19.34,100.10,-1031.25,247.56,34.88,31.95,-40.79,-152.10,-61.05,-35.10,32.63,134.04,
06/01/2021,01:10:19.34,115.72,-1014.16,283.69,33.96,27.07,-39.94,-150.45,-58.95,-36.30,32.44,134.04,
06/01/2021,01:10:19.36,180.18,-930.66,345.70,31.77,10.91,-34.27,-151.80,-61.05,-35.40,32.39,134.04,
06/01/2021,01:10:19.36,207.52,-888.67,364.75,30.85,1.59,-33.48,-150.15,-60.90,-36.60,32.73,134.04,
06/01/2021,01:10:19.37,210.45,-857.42,371.09,32.44,-8.66,-27.07,-150.15,-60.90,-36.60,32.73,134.04,
06/01/2021,01:10:19.37,212.89,-826.66,372.56,31.59,-19.76,-23.48,-150.15,-60.00,-35.55,32.39,134.04,
06/01/2021,01:10:19.38,204.59,-863.77,355.96,33.29,-31.34,-20.12,-150.15,-60.00,-35.55,32.73,134.04,
06/01/2021,01:10:19.39,92.77,-1000.00,268.07,34.27,-37.20,-12.74,-151.05,-60.60,-34.65,32.63,134.04,
06/01/2021,01:10:19.40,33.69,-1036.62,245.61,32.26,-34.57,-12.01,-151.05,-60.60,-34.65,32.77,134.04,
06/01/2021,01:10:19.40,20.51,-1052.73,230.96,31.28,-25.18,-15.00,-151.05,-60.60,-34.65,32.73,134.04,
06/01/2021,01:10:19.41,1.46,-1051.27,220.21,28.41,-17.44,-14.76,-150.45,-58.50,-35.55,32.58,134.04,
06/01/2021,01:10:19.41,-4.88,-1035.64,225.10,29.45,-7.01,-15.37,-150.45,-58.50,-35.55,32.73,134.05,
06/01/2021,01:10:19.43,58.11,-975.10,265.62,24.45,12.62,-24.57,-151.95,-58.95,-34.50,32.73,134.04,
06/01/2021,01:10:19.43,88.38,-965.82,281.25,23.29,18.78,-26.10,-151.95,-58.95,-34.50,32.73,134.04,
06/01/2021,01:10:19.43,118.65,-964.84,301.76,21.59,15.55,-25.00,-151.95,-58.95,-34.50,32.39,134.05,
06/01/2021,01:10:19.44,124.51,-952.64,326.66,21.10,16.83,-24.82,-151.95,-58.95,-34.50,32.73,134.05,
06/01/2021,01:10:19.44,168.46,-954.10,342.29,18.35,12.50,-22.26,-151.80,-60.30,-34.65,32.39,134.05,
06/01/2021,01:10:19.46,204.10,-948.24,347.17,22.80,-8.72,-14.33,-152.55,-58.65,-32.85,32.29,134.05,
06/01/2021,01:10:19.46,195.80,-961.91,351.56,22.68,-12.32,-13.72,-152.70,-60.00,-34.50,32.73,134.05,
06/01/2021,01:10:19.47,179.69,-949.71,332.03,22.44,-19.88,-13.41,-152.70,-60.00,-34.50,32.77,134.05,
06/01/2021,01:10:19.47,157.23,-983.89,318.85,22.99,-21.28,-10.24,-151.50,-58.50,-35.25,32.77,134.05,
06/01/2021,01:10:19.53,143.07,-964.84,327.15,17.32,-11.77,-24.57,-151.20,-58.95,-33.75,32.63,134.04,
06/01/2021,01:10:19.55,153.81,-960.45,327.15,20.67,-17.13,-27.99,-152.10,-61.05,-34.35,32.58,134.04,
06/01/2021,01:10:19.55,137.21,-969.24,323.73,21.10,-17.50,-27.62,-152.10,-61.05,-34.35,32.58,134.04,
06/01/2021,01:10:19.56,138.18,-951.66,319.34,21.34,-15.30,-29.82,-152.10,-61.05,-34.35,32.73,134.04,
06/01/2021,01:10:19.56,125.98,-960.94,332.03,18.48,-18.60,-29.21,-152.85,-58.65,-33.90,32.73,134.04,
06/01/2021,01:10:19.57,125.00,-965.33,331.54,19.33,-15.18,-29.82,-152.85,-58.65,-33.90,32.58,134.04,
06/01/2021,01:10:19.58,143.07,-963.38,336.91,20.06,-15.85,-34.76,-151.80,-57.15,-35.10,32.73,134.04,
06/01/2021,01:10:19.59,131.84,-961.91,332.03,17.68,-15.24,-34.15,-153.45,-60.45,-34.05,32.82,134.04,
06/01/2021,01:10:19.59,133.30,-957.52,358.89,21.22,-14.94,-37.50,-153.45,-60.45,-34.05,32.44,134.04,
06/01/2021,01:10:19.60,147.46,-957.03,343.26,18.66,-14.45,-37.38,-153.45,-57.75,-34.80,32.63,134.04,
06/01/2021,01:10:19.60,149.41,-959.96,349.61,19.63,-13.23,-37.93,-153.45,-57.75,-34.80,32.53,134.04,
06/01/2021,01:10:19.62,180.18,-965.33,355.96,16.83,-15.67,-42.62,-155.25,-58.20,-33.75,32.73,134.04,
06/01/2021,01:10:19.62,186.52,-967.29,354.00,20.43,-15.79,-41.40,-155.25,-58.20,-33.75,32.73,134.04,
06/01/2021,01:10:19.63,202.64,-959.96,356.45,19.21,-14.76,-39.51,-152.85,-56.70,-33.60,32.53,134.04,
06/01/2021,01:10:19.63,208.98,-973.14,362.79,20.43,-18.66,-40.00,-152.85,-56.70,-33.60,32.73,134.04,
06/01/2021,01:10:19.64,222.66,-979.98,364.26,17.99,-19.15,-43.60,-155.85,-57.60,-33.15,32.73,134.04,
06/01/2021,01:10:19.65,239.26,-980.96,364.75,19.88,-26.83,-39.09,-154.65,-57.15,-32.40,32.44,134.04,
06/01/2021,01:10:19.65,221.19,-989.26,371.09,18.48,-28.05,-46.89,-154.65,-57.15,-32.40,32.58,134.04,
06/01/2021,01:10:19.66,218.75,-1000.98,364.75,17.99,-32.13,-40.55,-154.65,-57.15,-32.40,32.58,134.04,
06/01/2021,01:10:19.66,220.21,-1016.11,378.91,19.27,-33.17,-43.72,-153.60,-56.40,-33.90,32.58,134.04,
06/01/2021,01:10:19.67,218.26,-1021.97,358.89,22.07,-34.82,-47.50,-153.60,-56.40,-33.90,32.63,134.04,
06/01/2021,01:10:19.68,227.54,-1049.80,373.05,18.11,-37.74,-48.66,-156.45,-58.50,-33.90,32.53,134.04,
06/01/2021,01:10:19.69,222.17,-1063.96,380.86,18.60,-40.85,-47.01,-156.45,-58.50,-31.20,32.39,134.04,
06/01/2021,01:10:19.69,202.64,-1072.75,368.65,18.84,-41.40,-49.45,-156.45,-58.50,-31.20,32.73,134.04,
06/01/2021,01:10:19.70,206.54,-1099.12,357.42,17.99,-43.05,-52.38,-154.95,-56.25,-33.00,32.44,134.04,
06/01/2021,01:10:19.70,198.24,-1094.24,343.75,16.77,-46.04,-52.32,-154.95,-56.25,-33.00,32.63,134.04,
06/01/2021,01:10:19.72,192.38,-1115.23,312.99,15.61,-45.37,-62.50,-156.45,-57.00,-31.50,32.73,134.04,
06/01/2021,01:10:19.72,211.91,-1115.72,308.11,16.34,-40.00,-62.93,-156.45,-57.00,-31.50,32.44,134.04,
06/01/2021,01:10:19.73,211.91,-1105.47,291.02,17.20,-39.39,-65.49,-156.45,-57.00,-31.50,32.63,134.04,
06/01/2021,01:10:19.73,213.87,-1090.82,296.39,14.76,-38.54,-67.80,-156.45,-57.00,-31.50,32.29,134.04,
06/01/2021,01:10:19.74,217.77,-1117.68,306.15,16.34,-37.68,-72.44,-157.65,-55.20,-32.85,32.73,134.04,
06/01/2021,01:10:19.75,203.12,-1148.44,301.76,16.40,-36.95,-79.63,-157.05,-58.20,-32.70,32.73,134.04,
06/01/2021,01:10:19.75,217.77,-1152.83,301.27,12.20,-38.54,-80.49,-158.55,-55.35,-31.95,32.39,134.04,
06/01/2021,01:10:19.76,226.56,-1170.41,282.71,13.05,-36.22,-86.04,-158.55,-55.35,-31.95,32.73,134.04,
06/01/2021,01:10:19.76,232.91,-1187.01,280.27,16.40,-38.96,-87.26,-156.60,-57.60,-33.15,32.44,134.04,
06/01/2021,01:10:19.77,237.79,-1214.84,253.91,12.26,-42.99,-89.09,-156.60,-57.60,-33.15,32.82,134.04,
06/01/2021,01:10:19.78,202.64,-1324.71,286.13,8.35,-41.34,-96.10,-159.30,-56.55,-33.45,32.58,134.04,
06/01/2021,01:10:19.79,174.80,-1344.73,289.55,8.78,-44.09,-102.50,-159.30,-56.55,-33.45,32.58,134.04,
06/01/2021,01:10:19.79,170.41,-1346.19,261.72,6.04,-41.59,-102.50,-159.30,-56.55,-33.45,32.77,134.04,
06/01/2021,01:10:19.80,183.11,-1332.03,255.37,6.95,-40.73,-106.10,-161.40,-54.90,-32.40,32.39,134.04,
06/01/2021,01:10:19.80,166.02,-1320.80,231.45,7.87,-40.24,-107.56,-161.40,-54.90,-32.40,32.58,134.04,
06/01/2021,01:10:19.82,178.22,-1271.48,211.91,9.82,-52.07,-116.34,-160.95,-56.40,-33.15,32.39,134.04,
06/01/2021,01:10:19.83,175.78,-1269.04,196.29,14.27,-57.20,-120.67,-160.95,-56.40,-33.15,32.58,134.04,
06/01/2021,01:10:19.83,135.25,-1272.46,229.00,13.29,-56.77,-120.85,-160.95,-56.40,-33.15,32.73,134.04,
06/01/2021,01:10:19.84,132.32,-1256.84,228.03,14.27,-61.83,-118.17,-161.25,-55.80,-31.95,32.73,134.04,
06/01/2021,01:10:19.84,119.14,-1254.88,237.79,13.60,-65.79,-120.06,-161.25,-55.80,-31.95,32.58,134.04,
06/01/2021,01:10:19.86,29.79,-1269.04,333.50,19.51,-74.63,-114.88,-162.45,-57.15,-32.10,32.73,134.04,
06/01/2021,01:10:19.86,45.41,-1267.58,387.70,19.57,-72.20,-116.46,-162.45,-57.15,-32.10,32.63,134.04,
06/01/2021,01:10:19.86,43.95,-1267.09,462.40,23.17,-70.43,-120.91,-162.75,-55.05,-32.25,32.73,134.04,
06/01/2021,01:10:19.87,84.96,-1228.52,585.94,27.07,-65.00,-126.10,-162.75,-55.05,-32.25,32.77,134.04,
06/01/2021,01:10:19.87,128.91,-1208.01,602.54,33.48,-53.48,-135.98,-162.75,-55.05,-32.25,32.73,134.04,
06/01/2021,01:10:19.89,313.48,-1362.79,576.66,43.48,-18.90,-170.55,-164.70,-54.45,-32.85,32.73,134.04,
06/01/2021,01:10:19.89,272.46,-1437.50,602.05,45.79,-11.10,-177.74,-164.70,-54.45,-32.85,32.77,134.04,
06/01/2021,01:10:19.90,240.23,-1500.49,589.84,49.76,-10.30,-179.02,-164.70,-54.45,-32.85,32.58,134.04,
06/01/2021,01:10:19.90,250.00,-1565.92,562.01,54.09,-5.30,-177.74,-164.70,-54.45,-32.85,32.73,134.04,
06/01/2021,01:10:19.91,242.68,-1572.27,529.30,53.23,-11.59,-176.77,-164.85,-53.55,-34.05,32.39,134.04,
06/01/2021,01:10:19.92,151.37,-1389.16,360.35,48.78,-19.21,-162.01,-165.45,-53.25,-32.40,32.63,134.04,
06/01/2021,01:10:19.93,138.18,-1348.14,301.76,44.27,-26.83,-161.59,-166.05,-54.30,-32.70,32.63,134.04,
06/01/2021,01:10:19.93,111.33,-1304.69,256.84,38.17,-33.11,-157.20,-166.05,-54.30,-32.70,32.44,134.04,
06/01/2021,01:10:19.94,45.90,-1281.74,269.04,32.68,-40.55,-153.54,-164.70,-52.50,-34.35,32.63,134.04,
06/01/2021,01:10:19.95,-166.99,-989.75,312.50,12.01,-44.15,-113.05,-164.70,-52.50,-34.35,32.97,134.04,
06/01/2021,01:10:19.96,-79.59,-855.96,307.13,11.83,-28.11,-99.02,-166.50,-52.95,-33.60,32.63,134.04,
06/01/2021,01:10:19.96,34.67,-734.86,269.04,12.32,-7.99,-93.90,-166.50,-52.95,-33.60,32.92,134.04,
06/01/2021,01:10:19.96,152.83,-604.98,288.09,12.80,14.02,-100.00,-163.35,-54.30,-34.05,32.58,134.04,
06/01/2021,01:10:19.97,278.81,-481.93,350.59,13.11,24.57,-98.29,-163.35,-54.30,-34.05,32.73,134.05,
06/01/2021,01:10:20.03,-230.47,-334.96,168.46,-37.62,-5.37,67.80,-167.85,-55.35,-35.55,32.73,134.04,
06/01/2021,01:10:20.05,-163.57,-421.88,206.54,-49.76,30.12,90.85,-166.35,-54.60,-37.05,32.53,134.04,
06/01/2021,01:10:20.05,-121.09,-445.31,203.61,-53.78,35.43,101.71,-166.35,-54.60,-37.05,32.73,134.04,
06/01/2021,01:10:20.05,-71.78,-430.18,212.89,-57.56,35.06,113.66,-165.60,-55.35,-38.55,32.73,134.04,
06/01/2021,01:10:20.06,-52.25,-456.05,214.84,-60.30,36.77,122.20,-165.60,-55.35,-38.55,32.63,134.04,
06/01/2021,01:10:20.07,-56.15,-471.68,233.89,-65.06,42.01,150.12,-164.10,-55.80,-38.55,32.29,134.04,
06/01/2021,01:10:20.08,-50.78,-480.47,224.61,-66.16,45.98,158.11,-164.10,-55.80,-41.10,32.44,134.04,
06/01/2021,01:10:20.08,-0.98,-525.88,231.93,-67.87,48.05,168.84,-164.10,-55.80,-41.10,32.77,134.04,
06/01/2021,01:10:20.09,41.99,-564.45,217.77,-70.55,52.68,174.82,-165.15,-56.70,-43.50,32.25,134.04,
06/01/2021,01:10:20.09,72.27,-594.24,212.89,-73.05,56.46,183.96,-165.15,-56.70,-43.50,32.58,134.04,
06/01/2021,01:10:20.10,125.49,-624.51,223.63,-75.18,59.94,185.00,-164.10,-57.75,-43.20,32.39,134.04,
06/01/2021,01:10:20.11,271.97,-732.91,303.22,-76.71,59.57,204.21,-165.45,-58.65,-44.10,32.39,134.04,
06/01/2021,01:10:20.12,322.75,-749.51,334.47,-80.91,58.11,209.82,-165.45,-58.65,-44.10,32.58,134.04,
06/01/2021,01:10:20.12,389.65,-762.21,359.38,-81.16,52.80,215.55,-165.45,-58.65,-44.10,32.73,134.04,
06/01/2021,01:10:20.13,412.11,-766.60,384.28,-82.80,41.16,219.70,-165.90,-55.65,-46.35,32.73,134.04,
06/01/2021,01:10:20.13,419.92,-768.55,399.90,-78.72,37.74,226.59,-165.90,-55.65,-46.35,32.39,134.04,
06/01/2021,01:10:20.15,295.41,-809.57,404.30,-72.68,32.99,240.12,-168.00,-56.70,-48.15,32.73,134.04,
06/01/2021,01:10:20.15,258.79,-823.73,397.46,-73.66,33.72,243.05,-168.00,-56.70,-48.15,32.73,134.04,
06/01/2021,01:10:20.16,233.89,-869.63,391.11,-71.83,39.88,241.95,-169.50,-56.70,-46.35,32.73,134.04,
06/01/2021,01:10:20.16,184.08,-892.09,379.88,-72.44,50.61,246.28,-169.50,-56.70,-46.35,32.58,134.04,
06/01/2021,01:10:20.16,185.55,-943.85,384.28,-71.40,58.35,248.96,-169.50,-56.70,-46.35,32.29,134.04,
06/01/2021,01:10:20.18,199.22,-1051.76,409.18,-70.12,85.30,253.11,-170.70,-55.20,-45.30,32.58,134.04,
06/01/2021,01:10:20.18,209.96,-1097.66,420.90,-69.15,94.27,255.73,-170.70,-55.20,-45.30,32.73,134.04,
06/01/2021,01:10:20.19,222.66,-1132.81,412.60,-70.37,104.21,254.76,-169.65,-57.75,-44.40,32.73,134.04,
06/01/2021,01:10:20.19,225.59,-1141.11,413.57,-71.65,112.38,254.51,-169.65,-57.75,-44.40,32.73,134.04,
06/01/2021,01:10:20.20,232.42,-1172.85,424.80,-73.23,120.30,254.27,-169.20,-55.65,-43.50,32.63,134.04,
