rtcDate,rtcTime,aX,aY,aZ,gX,gY,gZ,mX,mY,mZ,imu_degC,output_Hz,
06/01/2021,01:10:03.64,281.25,-930.66,-18.55,8.17,-41.59,-54.76,-168.45,-39.75,-7.05,34.40,118.32,
06/01/2021,01:10:03.69,253.91,-839.84,-11.72,5.61,-19.27,-44.76,-169.95,-37.95,-9.15,34.21,118.31,
06/01/2021,01:10:03.71,282.71,-812.50,11.23,0.24,-16.34,-39.76,-170.10,-37.05,-7.50,34.21,118.31,
06/01/2021,01:10:03.71,283.20,-815.92,-4.88,0.67,-15.49,-40.18,-170.10,-37.05,-7.50,34.50,118.31,
06/01/2021,01:10:03.72,250.49,-812.50,16.11,0.30,-13.54,-34.33,-170.10,-37.05,-7.50,34.36,118.31,
06/01/2021,01:10:03.74,254.88,-781.74,14.16,-2.62,-16.10,-30.79,-169.20,-35.70,-10.50,34.50,118.31,
06/01/2021,01:10:03.74,248.05,-783.20,16.60,-2.80,-11.10,-26.10,-169.35,-37.80,-9.00,34.40,118.31,
06/01/2021,01:10:03.75,259.28,-783.20,17.09,-2.13,-10.49,-25.61,-169.35,-37.80,-9.00,34.21,118.31,
06/01/2021,01:10:03.75,248.54,-770.02,34.18,-4.57,-10.85,-19.33,-169.35,-37.80,-9.00,34.31,118.31,
06/01/2021,01:10:03.76,242.19,-780.27,27.83,-6.22,-7.50,-21.34,-169.05,-36.30,-9.00,34.31,118.31,
06/01/2021,01:10:03.77,241.21,-777.34,40.04,-5.67,-2.44,-9.21,-169.05,-34.80,-11.85,34.55,118.31,
06/01/2021,01:10:03.78,229.49,-756.84,29.30,-5.06,2.93,-5.79,-170.70,-35.70,-8.40,34.21,118.31,
06/01/2021,01:10:03.79,237.79,-774.90,29.30,-7.93,4.45,-2.13,-169.80,-35.55,-10.05,34.16,118.31,
06/01/2021,01:10:03.79,242.68,-779.79,41.50,-7.32,5.73,-0.18,-169.80,-35.55,-10.05,34.21,118.31,
06/01/2021,01:10:03.80,241.21,-771.97,37.11,-8.66,11.28,1.40,-169.95,-34.95,-10.95,34.40,118.31,
06/01/2021,01:10:03.81,259.28,-778.81,54.20,-8.35,16.10,10.18,-167.25,-35.10,-10.65,34.16,118.31,
06/01/2021,01:10:03.82,248.54,-764.16,48.34,-7.74,16.34,15.67,-169.95,-37.50,-9.45,34.21,118.31,
06/01/2021,01:10:03.83,247.56,-778.32,51.76,-9.27,19.09,18.54,-168.15,-34.95,-9.45,34.31,118.31,
06/01/2021,01:10:03.83,246.58,-773.44,73.24,-7.32,22.74,23.66,-168.15,-34.95,-9.45,34.50,118.32,
06/01/2021,01:10:03.84,263.67,-771.00,61.04,-8.23,21.28,28.66,-167.55,-34.35,-11.10,34.40,118.32,
06/01/2021,01:10:03.84,261.23,-791.99,57.13,-8.60,24.39,26.95,-167.55,-34.35,-11.10,34.31,118.32,
06/01/2021,01:10:03.86,290.04,-793.95,56.64,-4.33,23.84,42.44,-169.20,-37.20,-8.70,34.40,118.31,
06/01/2021,01:10:03.87,293.46,-822.75,52.73,-5.79,27.07,47.44,-171.15,-37.35,-9.00,34.21,118.32,
06/01/2021,01:10:03.87,308.11,-835.94,67.87,-5.79,19.51,49.94,-171.15,-37.35,-9.00,34.31,118.32,
06/01/2021,01:10:03.88,307.62,-838.38,55.66,-4.82,21.95,55.12,-171.15,-37.35,-9.00,34.40,118.32,
06/01/2021,01:10:03.88,324.71,-841.31,62.50,-3.72,18.11,58.29,-171.15,-37.35,-9.00,34.50,118.32,
06/01/2021,01:10:03.90,338.87,-904.30,37.60,-3.41,11.95,72.68,-168.45,-37.50,-8.40,34.21,118.32,
06/01/2021,01:10:03.90,354.98,-932.13,43.46,-3.54,8.90,76.89,-168.45,-37.50,-8.40,34.21,118.32,
06/01/2021,01:10:03.91,344.73,-939.45,21.97,-3.54,6.65,80.55,-168.45,-37.50,-8.40,34.36,118.32,
06/01/2021,01:10:03.92,360.84,-961.91,21.97,-2.74,2.62,85.43,-169.05,-38.55,-9.30,34.02,118.32,
06/01/2021,01:10:03.92,383.30,-990.72,12.21,-4.09,1.83,91.04,-169.05,-38.55,-9.30,34.36,118.32,
06/01/2021,01:10:03.94,412.11,-1025.88,-27.34,-5.18,-6.22,99.33,-167.55,-38.55,-8.55,34.40,118.32,
06/01/2021,01:10:03.94,402.83,-1059.08,-29.30,-4.70,-9.70,101.95,-167.55,-38.55,-8.55,34.21,118.32,
06/01/2021,01:10:03.95,420.41,-1066.41,-46.39,-6.34,-10.37,106.10,-167.25,-39.30,-9.00,34.40,118.32,
06/01/2021,01:10:03.96,423.34,-1095.21,-52.73,-5.85,-9.82,109.57,-167.55,-38.55,-9.00,34.50,118.32,
06/01/2021,01:10:03.96,454.59,-1123.05,-64.45,-7.20,-9.39,109.63,-167.55,-38.55,-9.00,34.50,118.32,
06/01/2021,01:10:03.98,483.40,-1212.89,-52.73,-6.04,-13.84,116.40,-167.25,-42.90,-7.95,34.21,118.32,
06/01/2021,01:10:03.98,505.86,-1265.14,-62.50,-4.39,-13.60,118.90,-167.25,-42.90,-7.95,34.31,118.32,
06/01/2021,01:10:03.99,530.76,-1300.29,-69.34,-6.83,-16.34,115.61,-166.80,-42.15,-9.00,34.36,118.32,
06/01/2021,01:10:04.00,555.66,-1329.10,-89.84,-4.09,-18.96,114.45,-165.75,-43.35,-11.10,34.64,118.32,
06/01/2021,01:10:04.00,570.31,-1333.50,-94.73,-3.11,-21.77,112.80,-165.75,-43.35,-11.10,34.31,118.32,
06/01/2021,01:10:04.02,635.74,-1333.01,-162.11,2.50,-29.39,100.43,-166.80,-44.40,-8.55,34.36,118.32,
06/01/2021,01:10:04.02,644.53,-1312.50,-182.13,3.05,-32.99,93.60,-166.80,-44.40,-8.55,34.31,118.32,
06/01/2021,01:10:04.03,636.23,-1276.37,-212.40,5.67,-34.88,88.60,-168.00,-45.15,-10.05,34.36,118.32,
06/01/2021,01:10:04.04,624.02,-1266.60,-223.63,8.90,-35.37,81.46,-168.00,-45.15,-10.05,34.21,118.32,
06/01/2021,01:10:04.04,607.42,-1236.33,-238.28,8.54,-40.18,72.74,-168.00,-45.15,-10.05,34.21,118.32,
06/01/2021,01:10:04.06,558.11,-1104.98,-285.16,9.02,-31.10,52.62,-164.85,-45.75,-8.40,34.40,118.32,
06/01/2021,01:10:04.06,536.13,-1062.50,-304.69,6.71,-26.34,42.20,-164.85,-45.75,-8.40,34.21,118.32,
06/01/2021,01:10:04.07,509.77,-1012.21,-313.48,7.99,-21.77,34.88,-164.85,-45.75,-8.40,34.16,118.32,
06/01/2021,01:10:04.08,473.63,-959.96,-324.22,5.98,-9.88,26.16,-165.90,-44.25,-9.15,34.12,118.32,
06/01/2021,01:10:04.08,449.22,-911.62,-329.10,4.57,-2.93,21.95,-165.90,-44.25,-9.15,34.16,118.32,
06/01/2021,01:10:04.10,412.11,-842.77,-312.50,2.07,22.74,3.90,-164.85,-47.25,-11.25,34.21,118.32,
06/01/2021,01:10:04.10,400.39,-838.38,-296.88,-2.44,31.89,0.79,-164.85,-47.25,-11.25,34.31,118.32,
06/01/2021,01:10:04.11,406.25,-840.33,-274.41,-4.57,41.77,-5.12,-167.25,-47.40,-8.25,34.21,118.32,
06/01/2021,01:10:04.11,388.67,-826.66,-247.56,-6.34,51.28,-9.09,-165.30,-46.20,-10.95,34.36,118.32,
06/01/2021,01:10:04.12,389.16,-839.36,-223.14,-7.32,60.30,-14.45,-165.30,-46.20,-10.95,34.31,118.32,
06/01/2021,01:10:04.14,395.51,-893.55,-279.30,-18.78,79.76,-21.89,-167.55,-46.35,-7.95,34.21,118.32,
06/01/2021,01:10:04.14,432.62,-932.13,-279.79,-21.59,86.83,-29.33,-167.55,-46.35,-7.95,34.21,118.32,
06/01/2021,01:10:04.15,460.94,-935.06,-282.71,-27.13,93.60,-35.49,-165.75,-45.60,-8.25,34.31,118.32,
06/01/2021,01:10:04.18,421.88,-1018.07,-229.98,-37.68,104.51,-39.09,-165.90,-48.30,-5.55,34.31,118.32,
06/01/2021,01:10:04.20,399.90,-1065.92,-195.31,-38.54,110.91,-41.16,-166.20,-48.60,-5.40,34.21,118.31,
06/01/2021,01:10:04.21,392.09,-1051.76,-118.16,-36.65,114.88,-41.77,-164.55,-48.00,-5.25,34.12,118.31,
06/01/2021,01:10:04.22,386.72,-1019.04,-104.49,-37.62,111.40,-44.39,-164.55,-48.00,-5.25,34.02,118.31,
06/01/2021,01:10:04.23,379.39,-986.33,-64.45,-33.35,108.48,-40.30,-163.95,-45.90,-6.45,34.21,118.31,
06/01/2021,01:10:04.23,380.86,-950.20,-34.67,-34.27,107.56,-43.78,-163.95,-45.90,-6.45,34.31,118.31,
06/01/2021,01:10:04.24,384.77,-923.83,-36.62,-30.55,105.43,-40.67,-162.90,-47.10,-5.70,34.36,118.31,
06/01/2021,01:10:04.25,381.35,-885.25,-7.32,-25.06,88.66,-43.54,-163.95,-46.65,-5.10,34.36,118.31,
06/01/2021,01:10:04.26,373.05,-837.40,-2.93,-22.38,85.85,-43.05,-163.95,-46.65,-5.10,34.40,118.31,
06/01/2021,01:10:04.27,373.54,-810.55,4.88,-20.49,75.30,-40.85,-163.80,-47.25,-5.25,34.40,118.31,
06/01/2021,01:10:04.27,377.93,-796.88,15.62,-18.05,69.82,-41.34,-163.80,-47.25,-5.25,34.31,118.31,
06/01/2021,01:10:04.28,370.12,-780.76,5.37,-17.50,58.66,-37.87,-162.15,-44.85,-6.90,34.31,118.31,
06/01/2021,01:10:04.29,353.52,-745.12,-2.44,-11.59,38.41,-39.15,-164.10,-46.50,-3.45,34.21,118.31,
06/01/2021,01:10:04.30,363.77,-732.91,0.98,-9.02,33.60,-36.40,-164.10,-46.50,-3.45,34.40,118.31,
06/01/2021,01:10:04.30,342.77,-724.12,-14.16,-7.87,23.60,-31.46,-164.40,-45.90,-5.10,34.21,118.31,
06/01/2021,01:10:04.31,325.68,-742.19,-20.51,-5.18,19.88,-29.57,-164.40,-45.90,-5.10,34.21,118.32,
06/01/2021,01:10:04.32,315.92,-730.47,-20.02,-1.59,18.54,-28.96,-164.40,-45.90,-5.10,34.36,118.32,
06/01/2021,01:10:04.32,313.96,-732.42,-23.93,-2.99,16.28,-22.68,-162.75,-44.70,-4.95,34.40,118.32,
06/01/2021,01:10:04.34,285.64,-727.05,-33.20,0.00,10.73,-17.20,-163.65,-46.35,-5.10,34.16,118.31,
06/01/2021,01:10:04.34,296.39,-740.23,-34.67,2.01,9.76,-8.05,-167.25,-44.85,-1.80,34.12,118.32,
06/01/2021,01:10:04.35,305.18,-737.30,-38.09,3.17,12.07,-3.35,-167.25,-44.85,-1.80,34.40,118.32,
06/01/2021,01:10:04.36,306.15,-737.79,-42.48,2.20,10.61,1.16,-163.95,-44.40,-4.35,34.16,118.32,
06/01/2021,01:10:04.36,292.48,-742.19,-48.34,4.21,12.44,4.63,-164.85,-45.00,-5.55,34.31,118.32,
06/01/2021,01:10:04.38,326.17,-748.54,-42.97,6.28,9.94,15.67,-164.85,-44.70,-4.50,34.16,118.32,
06/01/2021,01:10:04.38,317.87,-756.35,-43.95,5.49,6.95,17.56,-165.90,-44.70,-3.15,34.40,118.32,
06/01/2021,01:10:04.39,318.36,-750.00,-49.32,5.12,9.39,22.80,-165.90,-44.70,-3.15,34.21,118.32,
06/01/2021,01:10:04.39,338.38,-752.93,-42.48,5.79,5.00,26.71,-164.55,-43.95,-4.50,34.21,118.32,
06/01/2021,01:10:04.40,315.92,-760.25,-62.01,9.27,4.33,31.28,-164.55,-43.95,-4.50,34.02,118.32,
06/01/2021,01:10:04.42,358.40,-768.07,-66.89,8.60,-3.60,41.22,-165.00,-44.85,-3.30,34.40,118.32,
06/01/2021,01:10:04.42,355.96,-766.11,-68.85,12.13,-3.54,45.49,-164.70,-44.85,-3.30,34.31,118.32,
06/01/2021,01:10:04.43,369.63,-775.88,-75.20,10.49,-5.30,47.20,-164.70,-44.85,-3.30,34.31,118.32,
06/01/2021,01:10:04.43,383.79,-802.25,-83.50,13.05,-8.72,50.79,-162.75,-45.00,-6.60,34.31,118.32,
06/01/2021,01:10:04.44,371.09,-808.59,-86.43,11.04,-11.22,48.11,-162.75,-45.00,-6.60,34.40,118.32,
06/01/2021,01:10:04.46,401.37,-853.52,-110.84,12.26,-20.85,54.70,-163.80,-44.25,-4.50,34.40,118.32,
06/01/2021,01:10:04.46,414.55,-861.33,-106.45,13.84,-20.79,52.44,-163.50,-43.20,-4.20,34.50,118.32,
06/01/2021,01:10:04.47,420.90,-890.14,-121.58,13.60,-27.50,57.01,-163.50,-43.20,-4.20,34.36,118.32,
06/01/2021,01:10:04.47,418.95,-901.37,-117.68,13.78,-24.33,56.95,-163.50,-43.20,-4.20,34.36,118.32,
06/01/2021,01:10:04.48,420.41,-912.11,-121.58,14.45,-29.45,58.78,-163.50,-43.20,-4.20,34.40,118.32,
06/01/2021,01:10:04.50,419.43,-987.30,-175.29,11.34,-13.17,51.89,-163.50,-45.45,-4.20,34.02,118.32,
06/01/2021,01:10:04.50,435.55,-1002.93,-186.04,8.96,-1.89,46.71,-163.50,-45.45,-4.20,34.12,118.32,
06/01/2021,01:10:04.51,463.38,-1021.00,-223.63,7.68,8.17,44.39,-163.50,-45.45,-4.20,34.31,118.32,
06/01/2021,01:10:04.51,505.86,-1050.78,-258.30,3.84,21.71,37.20,-161.40,-42.90,-5.40,34.12,118.32,
06/01/2021,01:10:04.52,524.41,-1067.87,-265.14,4.27,33.35,33.11,-161.40,-42.90,-5.40,34.21,118.32,
06/01/2021,01:10:04.53,599.12,-1103.52,-277.34,-1.52,54.27,16.71,-162.00,-44.70,-5.25,34.50,118.32,
06/01/2021,01:10:04.54,632.81,-1138.18,-281.25,-3.11,59.51,16.95,-162.15,-45.15,-4.05,34.31,118.32,
06/01/2021,01:10:04.55,644.53,-1187.99,-287.11,-6.16,62.01,12.99,-162.15,-45.15,-4.05,34.36,118.32,
06/01/2021,01:10:04.55,667.48,-1252.44,-285.16,-5.00,61.16,9.88,-161.25,-45.75,-6.30,34.36,118.32,
06/01/2021,01:10:04.56,668.95,-1312.01,-293.95,-6.46,59.45,8.72,-161.25,-45.75,-6.30,34.50,118.32,
06/01/2021,01:10:04.57,647.46,-1358.40,-283.20,-6.16,59.02,8.96,-160.65,-44.40,-3.00,34.40,118.32,
06/01/2021,01:10:04.58,673.34,-1408.20,-198.73,-8.90,46.10,12.13,-160.50,-45.45,-3.45,34.36,118.32,
06/01/2021,01:10:04.59,677.73,-1389.65,-158.69,-9.02,36.65,12.56,-160.50,-45.45,-3.45,34.50,118.32,
06/01/2021,01:10:04.59,664.55,-1375.98,-152.34,-11.65,27.38,11.52,-159.30,-44.85,-3.60,34.21,118.32,
06/01/2021,01:10:04.60,656.74,-1332.52,-125.49,-10.73,15.79,7.87,-159.30,-44.85,-3.60,34.31,118.32,
06/01/2021,01:10:04.60,665.04,-1291.02,-98.63,-12.80,5.30,6.40,-158.25,-44.10,-3.30,34.21,118.32,
06/01/2021,01:10:04.62,569.82,-1189.45,-72.75,-13.23,-17.99,-2.01,-158.55,-44.85,-3.60,34.21,118.32,
06/01/2021,01:10:04.63,544.43,-1146.97,-76.17,-13.11,-20.67,-6.46,-158.55,-44.85,-3.60,34.12,118.32,
06/01/2021,01:10:04.63,532.23,-1110.35,-65.43,-11.22,-23.29,-11.04,-158.55,-44.85,-3.60,34.21,118.32,
06/01/2021,01:10:04.64,524.90,-1064.45,-51.27,-11.10,-29.02,-17.13,-158.55,-44.85,-3.60,34.12,118.32,
06/01/2021,01:10:04.64,493.16,-1028.81,-73.73,-7.74,-33.66,-19.45,-158.70,-44.25,-6.00,34.31,118.32,
06/01/2021,01:10:04.66,435.55,-936.04,-72.27,-4.45,-43.78,-30.98,-158.70,-43.95,-5.25,34.31,118.32,
06/01/2021,01:10:04.69,346.19,-897.95,-61.04,-0.67,-34.21,-51.65,-162.00,-46.20,-4.20,34.40,118.32,
06/01/2021,01:10:04.71,332.03,-919.43,-51.27,-2.74,-19.76,-56.71,-160.65,-44.40,-5.70,34.40,118.31,
06/01/2021,01:10:04.71,351.07,-941.89,-43.46,-4.57,-14.27,-56.04,-161.70,-45.45,-4.20,34.40,118.31,
06/01/2021,01:10:04.72,341.80,-968.75,-28.32,-5.30,-12.13,-53.60,-161.70,-45.45,-4.20,34.31,118.32,
06/01/2021,01:10:04.74,324.22,-999.51,-40.53,-6.40,-6.77,-53.48,-161.40,-44.10,-5.10,34.50,118.31,
06/01/2021,01:10:04.74,327.64,-1002.93,-39.06,-11.10,-9.70,-53.29,-163.20,-41.85,-5.10,34.21,118.31,
06/01/2021,01:10:04.75,332.03,-1013.18,-28.81,-11.16,-4.33,-47.50,-163.20,-41.85,-5.10,34.31,118.31,
06/01/2021,01:10:04.75,324.22,-1006.84,-14.65,-15.49,-3.72,-44.94,-162.15,-44.40,-7.20,34.31,118.32,
06/01/2021,01:10:04.76,324.71,-1005.86,0.49,-14.15,-0.18,-43.54,-160.95,-42.75,-6.30,34.50,118.32,
06/01/2021,01:10:04.78,323.73,-987.79,-15.14,-15.91,-1.59,-35.06,-161.40,-43.65,-5.40,34.36,118.31,
06/01/2021,01:10:04.78,336.43,-997.07,5.86,-17.38,-1.04,-33.90,-164.40,-44.40,-3.60,34.50,118.31,
06/01/2021,01:10:04.79,331.05,-976.56,13.18,-15.67,1.22,-29.82,-164.40,-44.40,-3.60,34.40,118.32,
06/01/2021,01:10:04.79,343.75,-990.23,20.51,-16.40,-6.16,-26.95,-161.10,-44.10,-7.50,34.31,118.32,
06/01/2021,01:10:04.80,344.73,-960.45,26.86,-16.71,-5.85,-24.09,-162.00,-41.25,-6.60,34.36,118.32,
06/01/2021,01:10:04.82,358.89,-935.55,30.76,-14.21,-9.76,-22.20,-161.85,-44.10,-6.15,34.31,118.31,
06/01/2021,01:10:04.82,357.91,-890.62,41.02,-14.82,-12.99,-18.84,-161.85,-44.10,-6.15,34.40,118.32,
06/01/2021,01:10:04.83,338.38,-896.00,26.86,-14.02,-18.17,-19.94,-161.85,-44.10,-6.15,34.31,118.32,
06/01/2021,01:10:04.83,335.45,-879.88,26.37,-13.96,-17.62,-18.17,-161.85,-44.10,-5.70,34.36,118.32,
06/01/2021,01:10:04.84,337.40,-868.16,26.37,-10.24,-20.00,-18.17,-162.60,-43.35,-7.95,34.36,118.32,
06/01/2021,01:10:04.86,325.20,-817.87,13.18,-8.23,-23.90,-17.74,-162.60,-43.35,-7.95,34.31,118.32,
06/01/2021,01:10:04.86,313.96,-833.50,22.95,-6.95,-24.76,-19.45,-163.65,-42.60,-5.10,34.31,118.32,
06/01/2021,01:10:04.87,329.10,-833.50,10.74,-7.93,-22.32,-19.70,-163.65,-42.60,-5.10,34.21,118.32,
06/01/2021,01:10:04.87,306.15,-826.66,1.95,-5.85,-20.24,-21.16,-162.00,-43.20,-7.65,34.21,118.32,
06/01/2021,01:10:04.88,311.04,-818.85,2.44,-5.43,-18.41,-24.02,-162.00,-43.20,-7.65,34.31,118.32,
06/01/2021,01:10:04.89,299.80,-831.05,0.00,-4.82,-17.01,-23.29,-162.15,-43.65,-7.20,34.50,118.32,
06/01/2021,01:10:04.90,293.46,-830.08,-1.95,-3.90,-12.74,-25.06,-163.80,-43.95,-5.55,34.21,118.32,
06/01/2021,01:10:04.91,300.78,-833.50,-2.44,-6.40,-9.51,-27.38,-163.80,-43.95,-5.55,34.31,118.32,
06/01/2021,01:10:04.91,270.02,-846.19,-3.42,-4.33,-7.32,-27.99,-163.80,-43.95,-5.55,34.36,118.32,
06/01/2021,01:10:04.92,280.76,-841.80,-4.88,-5.30,-6.89,-25.37,-163.20,-43.95,-5.55,34.21,118.32,
06/01/2021,01:10:04.93,288.09,-847.66,2.93,-4.94,1.77,-27.62,-162.60,-44.10,-6.15,34.36,118.32,
06/01/2021,01:10:04.94,286.13,-839.84,-0.98,-4.76,5.37,-28.66,-164.40,-41.85,-6.15,34.31,118.32,
06/01/2021,01:10:04.94,283.69,-846.68,7.32,-4.94,3.84,-25.30,-164.40,-41.85,-6.15,34.31,118.32,
06/01/2021,01:10:04.95,279.30,-855.47,9.77,-2.38,8.23,-25.18,-162.90,-41.85,-7.20,34.21,118.32,
06/01/2021,01:10:04.96,290.53,-853.03,12.21,-3.66,7.62,-22.68,-162.90,-41.85,-7.20,34.36,118.32,
06/01/2021,01:10:04.96,280.27,-854.98,10.74,-6.04,9.15,-22.99,-162.60,-41.85,-7.95,34.31,118.32,
06/01/2021,01:10:04.98,285.64,-849.61,24.41,-5.12,9.21,-16.40,-162.30,-43.20,-7.65,34.40,118.32,
06/01/2021,01:10:04.98,285.64,-851.07,6.35,-4.94,10.37,-15.61,-162.30,-43.20,-7.65,34.21,118.32,
06/01/2021,01:10:04.99,290.04,-841.31,9.28,-5.73,11.34,-14.51,-163.50,-41.70,-7.35,34.12,118.32,
06/01/2021,01:10:05.00,271.97,-830.57,-0.49,-6.28,12.93,-13.35,-163.50,-41.70,-7.35,34.21,118.32,
06/01/2021,01:10:05.00,278.32,-826.17,12.21,-5.85,15.12,-9.63,-162.30,-41.70,-7.35,34.21,118.32,
06/01/2021,01:10:05.02,282.23,-833.01,-1.95,-4.63,14.57,-0.73,-164.10,-42.45,-7.35,34.31,118.32,
06/01/2021,01:10:05.02,278.81,-836.43,4.88,-6.65,16.52,1.16,-164.10,-42.45,-5.25,34.21,118.32,
06/01/2021,01:10:05.03,285.16,-847.66,-6.84,-6.34,13.78,3.66,-163.50,-40.95,-6.60,34.36,118.32,
06/01/2021,01:10:05.04,282.71,-855.96,-5.86,-6.16,19.02,7.01,-163.50,-40.95,-6.60,34.02,118.32,
06/01/2021,01:10:05.04,290.53,-846.68,5.86,-9.02,19.57,12.80,-163.50,-40.95,-6.60,34.31,118.32,
06/01/2021,01:10:05.06,289.55,-871.58,9.28,-8.78,22.26,19.45,-162.75,-42.75,-8.40,34.31,118.32,
06/01/2021,01:10:05.06,302.25,-882.32,-9.28,-7.99,23.41,21.77,-164.40,-42.90,-5.40,34.36,118.32,
06/01/2021,01:10:05.07,299.80,-904.79,-18.55,-8.60,20.73,26.40,-164.40,-42.90,-5.40,34.12,118.32,
06/01/2021,01:10:05.07,311.52,-932.62,-18.55,-9.27,23.35,29.21,-164.40,-42.90,-5.40,34.21,118.32,
06/01/2021,01:10:05.08,317.38,-952.15,-8.79,-10.55,22.13,33.96,-163.50,-42.45,-6.60,34.40,118.32,
06/01/2021,01:10:05.10,340.33,-1001.95,-28.81,-12.74,25.91,44.88,-161.70,-43.50,-6.30,34.50,118.32,
06/01/2021,01:10:05.10,340.82,-1024.41,-41.99,-13.29,26.34,46.83,-163.80,-45.45,-4.20,34.31,118.32,
06/01/2021,01:10:05.11,353.03,-1032.23,-37.60,-13.66,30.55,49.88,-161.10,-42.90,-5.70,34.36,118.32,
06/01/2021,01:10:05.11,355.96,-1045.41,-41.02,-13.35,28.96,54.57,-161.10,-42.90,-5.70,34.40,118.32,
06/01/2021,01:10:05.12,355.47,-1084.47,-46.88,-14.51,28.90,56.46,-159.45,-43.50,-6.60,34.31,118.32,
06/01/2021,01:10:05.14,371.09,-1169.92,-40.53,-14.76,34.27,67.13,-160.35,-43.65,-6.90,34.31,118.32,
06/01/2021,01:10:05.14,381.35,-1233.89,-20.51,-14.82,35.91,70.91,-162.30,-46.95,-3.75,34.50,118.32,
06/01/2021,01:10:05.15,385.74,-1270.02,-14.16,-13.41,36.59,76.28,-160.05,-44.40,-6.15,34.31,118.32,
06/01/2021,01:10:05.15,401.37,-1326.66,-28.32,-14.51,37.32,77.20,-160.05,-44.40,-6.15,34.21,118.32,
06/01/2021,01:10:05.16,425.29,-1336.91,-44.43,-13.35,35.49,80.12,-160.20,-44.25,-6.60,34.40,118.32,
06/01/2021,01:10:05.20,550.78,-1143.55,-178.71,-4.70,12.26,75.18,-160.05,-47.10,-4.35,34.02,118.32,
06/01/2021,01:10:05.22,584.96,-1034.18,-234.38,-4.76,5.00,66.95,-160.20,-47.25,-3.75,34.36,118.31,
06/01/2021,01:10:05.22,597.66,-998.54,-260.25,-1.65,0.00,60.85,-160.20,-47.25,-3.75,34.36,118.32,
06/01/2021,01:10:05.23,578.12,-940.43,-258.30,-0.79,-4.70,54.76,-160.20,-47.25,-3.75,34.36,118.32,
06/01/2021,01:10:05.24,578.61,-890.14,-281.25,-1.40,-3.60,42.87,-160.20,-47.25,-3.75,34.31,118.32,
06/01/2021,01:10:05.25,515.62,-799.32,-290.53,-1.22,-5.12,25.00,-157.80,-47.40,-6.15,34.16,118.31,
06/01/2021,01:10:05.26,511.72,-785.64,-289.55,-0.12,-5.85,18.05,-157.80,-47.40,-6.15,34.31,118.32,
06/01/2021,01:10:05.26,480.96,-785.16,-298.34,0.49,-0.79,11.52,-157.80,-47.40,-6.15,34.36,118.32,
06/01/2021,01:10:05.27,442.38,-770.51,-281.25,-0.18,0.18,3.11,-157.80,-46.65,-7.20,34.31,118.32,
06/01/2021,01:10:05.27,420.90,-787.11,-282.71,-2.50,5.55,-3.23,-157.80,-46.65,-7.20,34.31,118.32,
06/01/2021,01:10:05.28,411.62,-804.69,-279.30,-1.40,9.15,-8.90,-157.50,-46.65,-6.45,34.40,118.32,
06/01/2021,01:10:05.30,385.25,-872.07,-252.93,-5.79,28.54,-23.35,-159.75,-47.70,-4.95,34.16,118.32,
06/01/2021,01:10:05.30,361.33,-908.20,-246.58,-5.91,34.63,-27.68,-159.75,-47.70,-4.95,34.36,118.32,
06/01/2021,01:10:05.31,360.84,-927.25,-229.98,-9.21,49.76,-32.99,-159.75,-47.70,-6.60,34.40,118.32,
06/01/2021,01:10:05.31,359.86,-960.45,-216.80,-9.57,53.48,-33.23,-159.75,-47.70,-6.60,34.36,118.32,
06/01/2021,01:10:05.32,359.38,-973.63,-200.20,-10.61,59.57,-38.29,-156.90,-46.95,-6.30,34.31,118.32,
06/01/2021,01:10:05.34,374.02,-1036.62,-174.32,-11.10,74.82,-43.54,-156.75,-47.10,-4.65,34.36,118.32,
06/01/2021,01:10:05.34,368.65,-1050.29,-173.34,-13.17,79.39,-44.63,-156.75,-47.10,-4.65,34.31,118.32,
06/01/2021,01:10:05.35,359.38,-1046.88,-148.93,-14.02,83.90,-45.49,-156.75,-47.10,-6.15,34.21,118.32,
06/01/2021,01:10:05.35,375.00,-1046.88,-162.11,-14.02,87.26,-50.00,-156.75,-47.10,-6.15,34.36,118.32,
06/01/2021,01:10:05.36,370.61,-1039.55,-155.27,-16.46,91.46,-48.11,-156.75,-47.10,-6.15,34.31,118.32,
06/01/2021,01:10:05.38,381.84,-998.05,-122.56,-14.63,88.84,-44.57,-156.60,-48.00,-4.95,34.40,118.32,
06/01/2021,01:10:05.38,400.39,-972.17,-124.02,-14.27,89.51,-46.59,-156.60,-48.00,-4.95,34.21,118.32,
06/01/2021,01:10:05.39,394.04,-934.08,-133.30,-15.79,84.45,-44.39,-156.60,-48.00,-4.95,34.50,118.32,
06/01/2021,01:10:05.39,405.27,-913.09,-117.19,-15.18,81.34,-46.71,-156.60,-48.00,-4.95,34.31,118.32,
06/01/2021,01:10:05.40,407.71,-875.49,-120.61,-15.12,76.22,-42.87,-155.25,-45.60,-5.70,34.02,118.32,
06/01/2021,01:10:05.42,393.55,-810.55,-112.30,-12.07,63.05,-44.21,-154.80,-46.50,-4.95,34.21,118.32,
06/01/2021,01:10:05.42,399.41,-805.18,-96.68,-12.01,61.10,-42.80,-154.80,-46.50,-4.95,34.16,118.32,
06/01/2021,01:10:05.43,375.98,-771.97,-94.24,-9.15,55.73,-40.24,-156.75,-47.85,-3.30,34.36,118.32,
06/01/2021,01:10:05.43,377.44,-767.09,-80.57,-8.35,51.34,-39.21,-156.75,-47.85,-3.30,34.40,118.32,
06/01/2021,01:10:05.44,364.26,-752.44,-98.63,-8.66,47.32,-40.24,-154.20,-45.60,-4.35,34.40,118.32,
06/01/2021,01:10:05.46,342.77,-749.02,-76.17,-5.98,29.51,-36.46,-157.05,-47.10,-1.50,34.50,118.32,
06/01/2021,01:10:05.46,339.36,-733.89,-77.64,-4.39,26.16,-35.00,-157.05,-47.10,-1.50,34.21,118.32,
06/01/2021,01:10:05.47,338.87,-744.63,-83.01,-4.94,28.23,-31.95,-156.15,-46.20,-3.75,34.21,118.32,
06/01/2021,01:10:05.47,321.78,-752.44,-73.73,-2.32,21.71,-29.33,-154.95,-47.10,-3.60,34.36,118.32,
06/01/2021,01:10:05.48,319.82,-752.44,-87.89,-0.55,19.70,-24.39,-154.95,-47.10,-3.60,34.21,118.32,
06/01/2021,01:10:05.50,307.13,-773.44,-83.50,-2.80,19.39,-16.16,-156.45,-47.10,-1.80,34.12,118.32,
06/01/2021,01:10:05.50,296.39,-766.60,-87.40,-2.87,17.38,-16.71,-156.45,-47.10,-1.80,34.12,118.32,
06/01/2021,01:10:05.51,316.41,-768.55,-100.10,-1.83,18.11,-8.84,-154.20,-44.85,-4.05,34.12,118.32,
06/01/2021,01:10:05.51,311.52,-773.93,-90.33,-2.13,18.48,-4.45,-154.20,-44.85,-4.05,34.40,118.32,
06/01/2021,01:10:05.52,321.29,-790.04,-97.66,-2.07,17.38,-3.72,-154.20,-44.85,-4.05,34.40,118.32,
06/01/2021,01:10:05.54,321.29,-794.92,-91.80,-1.16,17.20,10.91,-155.85,-45.75,-2.40,34.40,118.32,
06/01/2021,01:10:05.54,340.33,-782.23,-94.73,-0.49,12.99,12.32,-155.85,-45.75,-2.40,34.31,118.32,
06/01/2021,01:10:05.55,342.29,-778.32,-104.49,-0.55,18.23,14.63,-155.85,-45.75,-2.40,34.40,118.32,
06/01/2021,01:10:05.55,356.45,-804.20,-100.59,1.10,13.35,18.29,-155.85,-45.75,-2.40,34.31,118.32,
06/01/2021,01:10:05.56,361.33,-791.99,-105.47,2.01,8.11,24.33,-156.00,-44.85,-4.05,34.31,118.32,
06/01/2021,01:10:05.57,358.89,-803.22,-109.86,4.88,2.56,32.87,-154.95,-46.35,-4.05,34.40,118.32,
06/01/2021,01:10:05.58,378.91,-802.73,-115.72,3.78,3.35,37.38,-154.95,-46.35,-4.05,34.12,118.32,
06/01/2021,01:10:05.59,359.38,-818.85,-119.14,5.43,-3.78,41.16,-155.25,-44.85,-3.30,34.31,118.32,
06/01/2021,01:10:05.59,381.35,-826.17,-137.70,4.82,-3.84,43.41,-155.25,-44.85,-3.30,34.12,118.32,
06/01/2021,01:10:05.60,379.88,-829.59,-129.88,5.24,-5.91,45.00,-153.90,-47.85,-3.60,34.40,118.32,
06/01/2021,01:10:05.61,385.74,-853.03,-163.57,3.84,-10.91,49.02,-154.95,-46.35,-1.80,34.40,118.32,
06/01/2021,01:10:05.62,388.18,-856.93,-166.02,4.82,-14.21,52.56,-154.95,-46.35,-1.80,34.31,118.32,
06/01/2021,01:10:05.63,398.44,-862.79,-175.78,3.05,-12.87,52.07,-154.05,-45.45,-3.75,34.50,118.32,
06/01/2021,01:10:05.63,400.39,-877.44,-170.90,3.05,-14.76,56.22,-154.05,-45.45,-3.75,34.40,118.32,
06/01/2021,01:10:05.64,398.44,-901.86,-182.13,3.35,-10.73,54.45,-152.85,-45.90,-3.00,34.40,118.32,
06/01/2021,01:10:05.64,395.02,-898.44,-171.39,0.61,-11.77,57.38,-153.15,-45.60,-4.35,34.50,118.32,
06/01/2021,01:10:05.66,408.20,-958.50,-162.11,-1.52,-7.99,57.93,-152.10,-47.40,-3.00,34.31,118.32,
06/01/2021,01:10:05.67,405.27,-959.47,-159.18,0.12,-4.33,61.77,-154.20,-46.35,-2.25,34.36,118.32,
06/01/2021,01:10:05.67,395.51,-980.96,-163.57,-2.20,-5.00,60.61,-154.20,-46.35,-2.25,34.21,118.32,
06/01/2021,01:10:05.68,421.39,-1015.62,-147.95,-2.74,-3.90,57.68,-152.55,-47.25,-4.50,34.31,118.32,
06/01/2021,01:10:05.71,457.03,-1092.77,-195.80,-3.90,23.05,48.78,-154.65,-47.40,-3.30,34.36,118.32,
06/01/2021,01:10:05.73,600.10,-1273.93,-203.12,-10.43,58.78,33.60,-153.90,-47.10,-2.25,34.40,118.32,
06/01/2021,01:10:05.74,634.28,-1312.99,-180.66,-11.22,62.87,29.33,-153.90,-47.10,-2.25,34.40,118.32,
06/01/2021,01:10:05.75,638.67,-1344.24,-156.74,-13.35,56.83,28.60,-150.30,-47.40,-2.55,34.36,118.32,
06/01/2021,01:10:05.75,651.37,-1356.45,-124.02,-13.23,50.06,27.99,-151.20,-45.75,-4.50,34.36,118.32,
06/01/2021,01:10:05.76,646.00,-1366.70,-120.12,-13.17,40.91,30.98,-151.20,-45.75,-4.50,34.36,118.32,
06/01/2021,01:10:05.77,596.68,-1303.71,-86.43,-12.01,11.89,29.09,-151.65,-49.35,-1.80,34.40,118.32,
06/01/2021,01:10:05.78,599.61,-1265.62,-110.35,-12.38,8.66,27.20,-151.65,-49.35,-1.80,34.31,118.32,
06/01/2021,01:10:05.79,600.10,-1192.38,-85.45,-9.45,4.15,25.49,-150.45,-47.25,-2.70,34.40,118.32,
06/01/2021,01:10:05.79,603.52,-1169.43,-86.43,-10.98,3.60,17.26,-149.55,-47.85,-4.05,34.31,118.32,
06/01/2021,01:10:05.80,562.99,-1125.98,-67.38,-10.12,-1.83,11.89,-149.55,-47.85,-4.05,34.31,118.32,
06/01/2021,01:10:05.81,521.97,-1011.23,-64.45,-6.22,-11.89,-3.90,-150.60,-47.85,-3.30,34.36,118.32,
06/01/2021,01:10:05.82,492.68,-969.73,-67.38,-7.74,-12.07,-12.01,-150.60,-47.85,-3.30,34.21,118.32,
06/01/2021,01:10:05.83,475.10,-938.48,-70.80,-4.27,-15.85,-14.63,-149.70,-46.20,-3.15,34.31,118.32,
06/01/2021,01:10:05.83,443.36,-935.55,-65.92,-2.74,-12.07,-21.59,-149.40,-48.75,-3.75,34.31,118.32,
06/01/2021,01:10:05.84,440.92,-936.04,-69.34,-3.54,-11.46,-28.23,-149.40,-48.75,-3.75,34.21,118.32,
06/01/2021,01:10:05.85,426.27,-942.87,-70.31,-2.50,-14.45,-33.90,-151.20,-48.75,-2.40,34.12,118.32,
06/01/2021,01:10:05.86,422.85,-947.27,-68.36,0.37,-12.99,-37.80,-151.20,-48.75,-2.40,34.02,118.32,
06/01/2021,01:10:05.87,425.29,-959.47,-62.01,-1.65,-15.00,-36.22,-151.20,-48.75,-2.40,34.21,118.32,
06/01/2021,01:10:05.87,420.90,-966.80,-43.95,-2.68,-14.57,-39.09,-149.70,-45.75,-3.45,34.31,118.32,
06/01/2021,01:10:05.88,425.29,-967.77,-34.67,-2.07,-14.21,-38.54,-149.70,-45.75,-3.45,34.02,118.32,
06/01/2021,01:10:05.89,399.41,-991.21,-61.52,-3.29,-19.33,-35.49,-150.45,-46.50,-3.15,34.12,118.32,
06/01/2021,01:10:05.90,398.44,-1004.88,-32.71,-6.89,-19.09,-32.20,-150.45,-46.50,-3.15,34.31,118.32,
06/01/2021,01:10:05.91,401.86,-1019.04,-46.88,-9.09,-21.34,-32.80,-151.50,-47.25,-4.95,34.31,118.32,
06/01/2021,01:10:05.91,415.53,-1010.74,-29.79,-6.04,-24.51,-28.84,-150.45,-46.95,-2.70,34.31,118.32,
06/01/2021,01:10:05.92,411.62,-1019.04,-25.88,-9.02,-23.72,-27.80,-150.45,-46.95,-2.70,34.40,118.32,
06/01/2021,01:10:05.93,404.79,-989.26,-10.74,-9.45,-25.85,-27.32,-152.55,-48.75,-2.10,34.31,118.32,
06/01/2021,01:10:05.94,386.23,-975.10,-13.67,-9.88,-25.37,-24.70,-152.55,-48.75,-2.10,34.21,118.32,
06/01/2021,01:10:05.95,393.07,-972.17,4.88,-9.76,-24.94,-25.24,-152.40,-46.35,-2.55,34.02,118.32,
06/01/2021,01:10:05.95,386.23,-970.70,6.84,-10.43,-27.20,-25.06,-152.40,-46.35,-2.55,34.36,118.32,
06/01/2021,01:10:05.96,362.30,-959.47,-6.35,-10.06,-30.79,-24.63,-152.40,-46.35,-2.55,34.31,118.32,
06/01/2021,01:10:05.97,390.14,-953.12,8.30,-8.29,-28.96,-26.34,-153.00,-47.25,-3.45,34.36,118.32,
06/01/2021,01:10:05.98,384.77,-936.52,14.65,-7.99,-29.45,-29.09,-153.00,-47.25,-3.45,34.12,118.32,
06/01/2021,01:10:05.99,372.56,-934.57,19.04,-7.87,-30.49,-29.02,-152.85,-47.40,-3.30,34.31,118.32,
06/01/2021,01:10:05.99,360.35,-925.78,20.51,-7.13,-31.10,-30.00,-153.15,-47.10,-3.60,34.40,118.32,
06/01/2021,01:10:06.00,367.68,-907.23,24.41,-6.10,-30.43,-30.30,-153.15,-47.10,-3.60,33.97,118.32,
06/01/2021,01:10:06.01,358.40,-876.46,14.16,-4.51,-27.93,-35.91,-155.10,-48.30,-2.70,34.50,118.32,
06/01/2021,01:10:06.02,348.63,-866.70,-1.95,-3.66,-27.50,-37.07,-155.10,-48.30,-2.70,34.02,118.32,
06/01/2021,01:10:06.02,353.52,-867.19,6.84,-3.96,-24.70,-39.45,-155.10,-47.25,-3.15,34.31,118.32,
06/01/2021,01:10:06.03,329.59,-854.49,-5.37,-3.96,-23.54,-40.12,-153.30,-46.95,-4.20,34.31,118.32,
06/01/2021,01:10:06.04,323.24,-854.49,5.86,-4.15,-26.89,-40.73,-153.30,-46.95,-4.20,34.36,118.32,
06/01/2021,01:10:06.05,321.78,-855.96,7.81,-1.59,-12.93,-46.95,-153.90,-46.65,-4.65,34.21,118.32,
06/01/2021,01:10:06.06,321.29,-854.98,-4.39,-1.28,-13.48,-46.95,-153.90,-46.65,-4.65,34.40,118.32,
06/01/2021,01:10:06.06,319.34,-853.03,-2.93,-2.50,-9.09,-52.44,-154.65,-45.60,-4.35,34.21,118.32,
06/01/2021,01:10:06.07,322.75,-865.23,9.77,-2.13,-7.93,-52.26,-155.10,-47.25,-4.95,34.31,118.32,
06/01/2021,01:10:06.08,321.78,-872.56,10.74,-1.77,-6.71,-52.74,-155.10,-47.25,-4.95,34.21,118.32,
06/01/2021,01:10:06.09,304.20,-864.75,21.97,-0.49,-1.46,-52.38,-157.35,-46.50,-3.75,34.16,118.32,
06/01/2021,01:10:06.10,305.66,-876.46,4.39,-1.04,-4.09,-53.17,-157.35,-46.50,-3.75,33.97,118.32,
06/01/2021,01:10:06.10,295.41,-850.10,11.72,-1.40,-3.72,-54.45,-156.75,-47.10,-5.40,34.50,118.32,
06/01/2021,01:10:06.11,289.55,-861.82,19.53,-1.65,-1.46,-53.17,-156.75,-47.10,-5.40,34.31,118.32,
06/01/2021,01:10:06.12,285.64,-864.75,14.16,0.73,-2.87,-54.27,-156.75,-47.10,-5.40,34.36,118.32,
06/01/2021,01:10:06.12,308.11,-855.96,13.18,0.79,-0.55,-55.85,-157.05,-44.40,-5.10,34.40,118.32,
06/01/2021,01:10:06.14,280.27,-843.26,18.55,0.43,1.52,-51.83,-157.35,-46.50,-3.75,34.50,118.32,
06/01/2021,01:10:06.14,266.60,-847.17,3.42,0.91,1.52,-51.89,-157.35,-46.50,-3.75,33.88,118.32,
06/01/2021,01:10:06.15,271.00,-834.47,11.72,0.43,1.89,-47.74,-157.35,-46.50,-3.75,34.31,118.32,
06/01/2021,01:10:06.16,273.44,-840.82,9.28,-1.22,6.22,-48.29,-156.15,-45.45,-5.25,34.31,118.32,
06/01/2021,01:10:06.16,266.11,-835.45,20.02,0.37,7.07,-46.04,-157.50,-45.15,-4.05,34.40,118.32,
06/01/2021,01:10:06.18,258.30,-832.52,18.07,-0.49,12.01,-41.71,-157.80,-45.90,-4.05,34.36,118.32,
06/01/2021,01:10:06.18,268.55,-833.98,10.25,0.79,12.13,-36.46,-160.05,-44.85,-3.30,34.21,118.32,
06/01/2021,01:10:06.19,253.91,-846.68,27.34,-1.04,10.79,-30.49,-160.05,-44.85,-3.30,34.16,118.32,
06/01/2021,01:10:06.22,283.20,-904.30,17.58,-3.78,18.48,-9.27,-159.15,-45.75,-2.40,34.40,118.32,
06/01/2021,01:10:06.24,277.83,-941.89,9.77,-0.91,16.40,1.95,-158.40,-44.70,-2.40,34.50,118.32,
06/01/2021,01:10:06.25,297.36,-1009.28,10.25,-5.30,20.43,14.39,-158.85,-46.35,-3.00,34.31,118.32,
06/01/2021,01:10:06.26,285.64,-1015.62,-0.49,-8.48,21.34,19.82,-158.85,-46.35,-3.00,34.36,118.32,
06/01/2021,01:10:06.26,293.46,-1032.71,-2.44,-7.50,23.17,25.12,-156.75,-45.15,-4.35,34.21,118.32,
06/01/2021,01:10:06.27,290.53,-1082.03,18.07,-9.33,29.21,30.73,-156.75,-45.15,-4.35,34.40,118.32,
06/01/2021,01:10:06.28,288.09,-1147.46,36.62,-8.96,30.06,35.43,-156.75,-45.15,-4.35,34.40,118.32,
06/01/2021,01:10:06.29,319.82,-1279.30,30.27,-6.89,37.01,52.99,-157.80,-45.90,-2.55,34.40,118.32,
06/01/2021,01:10:06.30,333.98,-1296.88,44.92,-6.89,41.46,60.24,-157.80,-45.90,-2.55,34.31,118.32,
06/01/2021,01:10:06.30,371.09,-1305.18,34.67,-4.88,37.93,67.50,-157.80,-45.90,-2.55,34.40,118.32,
06/01/2021,01:10:06.31,391.60,-1304.20,31.74,-4.21,36.95,72.99,-154.95,-45.15,-5.40,34.31,118.32,
06/01/2021,01:10:06.31,414.06,-1229.00,17.09,-2.99,33.48,72.44,-154.95,-45.15,-5.40,34.31,118.32,
06/01/2021,01:10:06.32,407.71,-1196.29,-12.70,-2.74,29.15,76.10,-155.70,-45.15,-5.10,34.02,118.32,
06/01/2021,01:10:06.34,441.41,-1112.79,-74.22,3.78,19.09,81.52,-154.35,-46.95,-4.20,34.21,118.32,
06/01/2021,01:10:06.34,448.24,-1081.05,-103.03,6.10,18.48,82.87,-157.05,-47.40,-1.80,34.40,118.32,
06/01/2021,01:10:06.35,471.68,-1060.55,-124.02,6.22,14.15,85.55,-153.45,-46.65,-3.60,34.36,118.32,
06/01/2021,01:10:06.35,498.54,-1028.32,-153.32,6.71,7.93,78.29,-153.45,-46.65,-3.60,34.31,118.32,
06/01/2021,01:10:06.36,503.91,-998.05,-180.18,8.29,5.37,78.66,-153.30,-46.50,-5.55,34.31,118.32,
06/01/2021,01:10:06.38,528.81,-898.44,-188.48,11.71,-8.60,67.56,-153.00,-47.25,-3.15,34.21,118.32,
06/01/2021,01:10:06.38,515.62,-855.96,-197.75,9.51,-16.22,64.27,-155.55,-48.30,-2.40,34.40,118.32,
06/01/2021,01:10:06.39,515.14,-821.78,-218.75,12.01,-17.32,57.38,-153.75,-46.95,-4.50,34.36,118.32,
06/01/2021,01:10:06.39,513.18,-819.82,-224.61,11.40,-20.18,50.30,-153.75,-46.95,-4.50,34.40,118.32,
06/01/2021,01:10:06.40,502.44,-791.99,-227.54,13.23,-22.01,42.01,-153.75,-46.95,-4.50,34.50,118.32,
06/01/2021,01:10:06.42,466.31,-813.48,-245.12,13.84,-21.16,23.48,-152.40,-46.65,-3.00,34.31,118.32,
06/01/2021,01:10:06.42,443.85,-822.75,-235.84,14.57,-19.94,19.21,-154.95,-48.15,-1.20,34.21,118.32,
06/01/2021,01:10:06.43,436.04,-845.21,-252.93,12.50,-17.44,13.35,-154.95,-48.15,-1.20,34.40,118.32,
06/01/2021,01:10:06.43,395.51,-873.05,-249.51,10.43,-12.50,6.40,-154.95,-48.15,-1.20,34.02,118.32,
06/01/2021,01:10:06.44,369.14,-896.00,-252.93,11.16,-9.45,1.28,-154.05,-46.20,-5.25,34.21,118.32,
06/01/2021,01:10:06.46,347.66,-988.77,-246.09,8.84,17.50,-11.10,-154.05,-47.70,-3.15,34.21,118.32,
06/01/2021,01:10:06.46,346.68,-1008.79,-247.56,7.20,26.40,-12.68,-154.05,-47.70,-3.15,34.31,118.32,
06/01/2021,01:10:06.47,346.19,-1031.25,-243.16,7.87,33.48,-17.74,-154.05,-47.70,-3.15,34.21,118.32,
06/01/2021,01:10:06.47,348.14,-1040.04,-236.33,5.00,51.95,-21.22,-153.75,-46.50,-3.75,34.21,118.32,
06/01/2021,01:10:06.48,359.38,-1066.89,-228.52,3.90,55.37,-23.72,-153.15,-47.85,-4.65,34.21,118.32,
06/01/2021,01:10:06.49,390.14,-1089.36,-206.05,1.10,69.02,-26.83,-153.15,-47.85,-4.65,34.40,118.32,
06/01/2021,01:10:06.50,383.79,-1086.91,-204.59,1.46,71.89,-31.28,-155.10,-48.30,-1.65,34.12,118.32,
06/01/2021,01:10:06.51,406.74,-1079.10,-207.03,0.98,72.87,-31.95,-152.10,-45.15,-1.65,34.31,118.32,
06/01/2021,01:10:06.51,415.04,-1071.78,-206.05,0.30,71.89,-28.78,-152.10,-45.15,-3.60,34.31,118.32,
06/01/2021,01:10:06.52,418.46,-1037.11,-201.66,0.91,68.11,-26.89,-152.25,-47.70,-3.75,34.21,118.32,
06/01/2021,01:10:06.53,429.20,-959.96,-193.85,-0.43,58.90,-28.54,-151.65,-46.35,-2.55,34.50,118.32,
06/01/2021,01:10:06.54,432.13,-939.94,-182.62,-2.07,56.59,-28.78,-154.20,-47.85,-1.80,34.50,118.32,
06/01/2021,01:10:06.55,421.39,-910.16,-178.22,-3.54,47.93,-27.56,-151.05,-45.60,-3.60,34.21,118.32,
06/01/2021,01:10:06.55,425.78,-875.98,-177.25,-4.39,43.05,-28.05,-151.05,-45.60,-3.60,34.21,118.32,
06/01/2021,01:10:06.56,406.74,-854.49,-178.71,-2.80,35.98,-23.96,-150.75,-45.45,-3.15,34.31,118.32,
06/01/2021,01:10:06.57,378.91,-811.04,-160.64,-5.67,26.10,-22.20,-151.05,-45.60,-3.00,34.40,118.32,
06/01/2021,01:10:06.58,378.42,-798.34,-159.18,-6.28,21.10,-20.55,-152.55,-49.05,-0.30,34.50,118.32,
06/01/2021,01:10:06.59,358.89,-790.04,-157.23,-7.56,17.56,-18.05,-152.55,-49.05,-0.30,34.31,118.32,
06/01/2021,01:10:06.59,344.73,-768.07,-160.64,-6.71,16.22,-16.22,-152.55,-49.05,-0.30,34.36,118.32,
06/01/2021,01:10:06.60,336.43,-763.67,-152.34,-8.35,17.32,-15.98,-150.30,-45.90,-3.30,34.31,118.32,
06/01/2021,01:10:06.61,320.31,-753.91,-156.25,-9.27,19.09,-10.06,-152.55,-45.75,-2.40,34.12,118.32,
06/01/2021,01:10:06.62,319.82,-743.16,-125.49,-10.55,14.82,-6.95,-152.55,-45.75,-2.40,34.12,118.32,
06/01/2021,01:10:06.63,314.45,-747.56,-135.74,-11.65,17.50,-4.70,-152.55,-45.75,-2.40,34.16,118.32,
06/01/2021,01:10:06.63,323.24,-740.23,-130.86,-10.61,18.72,-2.13,-151.50,-46.95,-1.65,34.31,118.32,
06/01/2021,01:10:06.64,325.20,-758.30,-123.54,-11.59,19.15,-0.18,-152.40,-45.15,-2.55,34.50,118.32,
06/01/2021,01:10:06.65,336.91,-780.76,-106.93,-10.85,17.01,11.89,-152.40,-45.15,-2.55,34.36,118.32,
06/01/2021,01:10:06.66,338.38,-775.39,-118.65,-12.26,18.48,12.62,-153.00,-47.70,-0.60,34.40,118.32,
06/01/2021,01:10:06.67,347.17,-786.62,-102.05,-12.20,22.01,15.43,-149.85,-47.10,-4.35,34.40,118.32,
06/01/2021,01:10:06.67,346.19,-790.04,-107.91,-10.98,16.52,17.20,-149.85,-47.10,-4.35,34.21,118.32,
06/01/2021,01:10:06.68,360.84,-796.39,-105.96,-11.77,14.76,23.23,-149.85,-47.10,-4.35,34.36,118.32,
06/01/2021,01:10:06.69,376.46,-812.99,-101.56,-10.37,10.61,26.52,-150.15,-46.95,-2.40,34.31,118.32,
06/01/2021,01:10:06.70,356.45,-812.50,-90.82,-8.72,6.59,32.62,-152.40,-47.85,-1.50,34.21,118.32,
06/01/2021,01:10:06.77,405.76,-892.58,-101.07,-1.71,-16.34,49.76,-150.30,-48.90,-2.25,34.21,118.31,
06/01/2021,01:10:06.78,388.18,-916.50,-107.91,-1.59,-13.48,52.68,-150.30,-48.90,-2.25,34.36,118.31,
06/01/2021,01:10:06.79,398.44,-929.69,-104.98,-3.23,-10.43,51.46,-151.50,-48.00,-1.35,34.50,118.31,
06/01/2021,01:10:06.80,417.97,-982.42,-96.19,-0.49,-9.27,49.88,-148.95,-46.50,-3.45,34.02,118.31,
06/01/2021,01:10:06.81,427.25,-999.02,-93.26,-2.74,-7.68,52.87,-148.95,-46.50,-3.45,34.40,118.31,
06/01/2021,01:10:06.82,437.50,-1002.93,-99.61,0.43,-7.01,51.16,-147.60,-46.95,-3.45,34.21,118.31,
06/01/2021,01:10:06.82,424.32,-1014.65,-95.70,1.34,-7.01,54.63,-147.60,-46.95,-3.45,34.36,118.31,
06/01/2021,01:10:06.83,442.87,-1028.81,-93.26,1.34,-6.71,50.49,-149.55,-48.60,-4.65,34.40,118.31,
06/01/2021,01:10:06.83,447.75,-1041.50,-87.89,2.62,-6.28,52.50,-149.55,-48.60,-4.65,34.31,118.31,
06/01/2021,01:10:06.85,479.98,-1042.97,-97.17,2.20,-6.83,48.96,-148.05,-48.15,-3.00,34.36,118.31,
06/01/2021,01:10:06.85,467.77,-1077.15,-87.40,2.26,-5.91,46.16,-148.95,-48.00,-4.20,34.21,118.31,
06/01/2021,01:10:06.86,469.24,-1099.12,-93.75,2.74,-5.91,44.33,-148.95,-48.00,-4.20,34.64,118.31,
06/01/2021,01:10:06.87,477.05,-1134.28,-88.87,6.34,-3.35,45.18,-149.40,-47.70,-4.50,34.36,118.31,
06/01/2021,01:10:06.87,482.42,-1197.27,-84.96,6.22,-3.72,45.67,-149.40,-47.70,-4.50,34.40,118.31,
06/01/2021,01:10:06.89,517.58,-1339.36,-81.54,2.68,-3.84,45.55,-148.05,-47.85,-2.55,34.21,118.31,
06/01/2021,01:10:06.89,554.69,-1366.70,-88.38,3.35,-4.45,42.38,-148.05,-47.85,-2.55,34.40,118.31,
06/01/2021,01:10:06.90,570.31,-1380.37,-85.94,0.06,-2.74,43.29,-148.05,-47.85,-2.55,34.21,118.31,
06/01/2021,01:10:06.91,577.15,-1362.79,-82.52,-2.01,-6.65,41.83,-146.85,-47.70,-3.75,34.50,118.31,
06/01/2021,01:10:06.91,591.31,-1299.32,-66.89,-2.20,-8.72,37.68,-146.85,-47.70,-3.75,34.40,118.31,
06/01/2021,01:10:06.93,607.42,-1147.95,-76.17,-1.22,-11.71,25.12,-148.65,-48.30,-3.15,34.40,118.31,
06/01/2021,01:10:06.93,595.21,-1119.63,-77.15,-1.46,-14.82,24.57,-148.65,-48.30,-3.15,34.21,118.31,
06/01/2021,01:10:06.94,581.54,-1053.22,-77.15,-1.04,-14.57,12.56,-148.65,-48.30,-3.15,34.40,118.31,
06/01/2021,01:10:06.95,571.29,-1023.93,-84.47,0.85,-16.71,4.57,-146.40,-49.05,-3.75,34.40,118.31,
06/01/2021,01:10:06.95,555.18,-998.05,-81.05,2.13,-17.38,0.00,-146.40,-49.05,-3.75,34.31,118.31,
06/01/2021,01:10:06.97,518.55,-965.82,-93.75,4.94,-19.45,-15.67,-146.40,-47.25,-3.75,34.31,118.31,
06/01/2021,01:10:06.97,494.14,-957.52,-92.29,8.66,-20.73,-20.49,-146.40,-47.25,-3.75,34.31,118.31,
06/01/2021,01:10:06.98,487.79,-965.82,-99.61,7.07,-18.54,-25.61,-147.30,-46.65,-4.05,34.31,118.31,
06/01/2021,01:10:06.99,495.12,-965.33,-104.49,9.70,-21.59,-29.76,-146.25,-48.90,-4.65,34.21,118.31,
06/01/2021,01:10:06.99,497.07,-977.05,-88.38,8.66,-25.12,-35.18,-146.25,-48.90,-4.65,34.50,118.32,
06/01/2021,01:10:07.01,490.23,-968.75,-62.01,8.41,-29.88,-41.83,-148.95,-49.50,-2.70,34.31,118.31,
06/01/2021,01:10:07.01,479.00,-995.12,-62.50,6.59,-32.74,-40.37,-148.95,-49.50,-2.70,34.21,118.31,
06/01/2021,01:10:07.02,479.49,-982.91,-61.04,6.40,-35.67,-43.11,-149.70,-46.20,-4.50,34.36,118.32,
06/01/2021,01:10:07.03,474.61,-994.14,-56.64,4.70,-36.10,-42.87,-149.70,-46.20,-4.50,34.02,118.32,
06/01/2021,01:10:07.03,460.94,-976.56,-56.15,4.94,-37.80,-45.00,-149.70,-46.20,-4.50,34.21,118.32,
06/01/2021,01:10:07.05,430.66,-1022.46,-43.95,2.32,-39.27,-44.88,-150.45,-48.30,-2.10,34.40,118.31,
06/01/2021,01:10:07.05,438.48,-1033.20,-41.99,1.40,-44.09,-48.05,-150.45,-48.30,-2.10,34.21,118.32,
06/01/2021,01:10:07.06,416.50,-1040.04,-39.55,0.12,-45.00,-48.66,-148.80,-48.15,-4.65,34.36,118.32,
06/01/2021,01:10:07.06,421.39,-1046.88,-34.67,-0.91,-45.00,-45.00,-148.80,-46.65,-5.10,34.21,118.32,
06/01/2021,01:10:07.07,411.62,-1043.46,-34.67,-2.62,-46.65,-47.26,-148.80,-46.65,-5.10,34.36,118.32,
06/01/2021,01:10:07.09,414.06,-1050.78,-24.41,-3.78,-43.66,-49.21,-150.60,-47.40,-3.30,34.40,118.32,
06/01/2021,01:10:07.09,400.88,-1043.95,-12.21,-2.62,-45.37,-47.68,-150.60,-47.40,-3.30,34.02,118.32,
06/01/2021,01:10:07.10,397.46,-1056.64,-14.65,-4.76,-44.70,-52.62,-150.75,-48.00,-3.75,34.40,118.32,
06/01/2021,01:10:07.10,386.72,-1027.34,-9.28,-4.21,-44.51,-54.02,-150.75,-48.00,-5.25,34.16,118.32,
06/01/2021,01:10:07.11,376.46,-1038.57,0.49,-5.37,-41.40,-56.40,-150.75,-48.00,-5.25,34.12,118.32,
06/01/2021,01:10:07.13,380.86,-1000.98,2.93,-4.63,-36.83,-58.60,-151.35,-48.15,-4.65,34.50,118.32,
06/01/2021,01:10:07.13,378.42,-993.65,24.90,-2.80,-36.52,-64.15,-151.35,-48.15,-4.65,34.31,118.32,
06/01/2021,01:10:07.14,366.21,-990.23,6.35,-3.05,-36.16,-63.96,-154.80,-48.30,-4.95,34.64,118.32,
06/01/2021,01:10:07.14,361.82,-993.65,19.53,-3.48,-33.54,-65.61,-153.75,-47.25,-5.55,34.40,118.32,
06/01/2021,01:10:07.15,351.07,-968.75,14.65,-1.34,-31.52,-69.02,-153.75,-47.25,-5.55,34.50,118.32,
06/01/2021,01:10:07.17,340.33,-951.66,7.32,-1.65,-27.68,-75.37,-154.95,-48.60,-4.35,34.31,118.32,
06/01/2021,01:10:07.17,330.57,-927.25,12.70,-0.24,-24.82,-79.15,-154.95,-48.60,-4.35,34.36,118.32,
06/01/2021,01:10:07.18,335.45,-930.18,13.18,0.61,-21.89,-80.55,-154.20,-47.40,-3.60,34.21,118.32,
06/01/2021,01:10:07.18,325.68,-922.85,1.95,0.55,-18.60,-82.07,-154.20,-47.40,-3.60,34.21,118.32,
06/01/2021,01:10:07.19,306.15,-926.76,4.88,2.80,-14.88,-82.20,-154.20,-47.40,-3.60,34.31,118.32,
06/01/2021,01:10:07.20,305.66,-923.34,11.23,2.26,-14.39,-87.32,-153.75,-45.75,-4.50,34.31,118.32,
06/01/2021,01:10:07.24,279.30,-888.18,21.48,4.39,-3.29,-93.17,-157.95,-47.25,-4.95,34.40,118.31,
06/01/2021,01:10:07.25,277.34,-876.95,24.90,6.71,-2.74,-95.00,-156.90,-47.25,-3.45,34.36,118.31,
06/01/2021,01:10:07.26,269.53,-867.68,28.32,8.41,-1.22,-92.80,-156.90,-47.25,-3.45,34.02,118.31,
06/01/2021,01:10:07.27,260.25,-877.93,19.53,8.11,1.71,-91.59,-157.95,-45.00,-6.00,34.31,118.31,
06/01/2021,01:10:07.27,261.72,-856.93,29.30,7.44,1.22,-89.82,-157.95,-45.00,-6.00,34.36,118.31,
06/01/2021,01:10:07.29,242.68,-853.03,31.25,6.40,4.57,-86.77,-157.65,-45.00,-4.95,34.31,118.31,
06/01/2021,01:10:07.29,248.54,-856.45,28.32,5.91,4.57,-84.63,-159.75,-45.00,-5.55,34.21,118.31,
06/01/2021,01:10:07.30,247.07,-840.82,13.67,6.22,3.66,-80.85,-159.75,-45.00,-5.55,34.40,118.31,
06/01/2021,01:10:07.30,239.75,-839.84,17.58,6.83,4.33,-79.33,-156.90,-43.95,-5.55,34.31,118.31,
06/01/2021,01:10:07.31,239.26,-843.75,11.72,3.90,5.55,-74.94,-156.90,-43.95,-5.55,34.31,118.31,
06/01/2021,01:10:07.33,224.61,-845.21,28.81,3.11,11.10,-65.24,-159.45,-45.45,-3.15,34.21,118.31,
06/01/2021,01:10:07.33,224.12,-867.19,24.90,1.83,12.07,-60.24,-160.65,-42.15,-4.65,34.40,118.31,
06/01/2021,01:10:07.34,226.56,-857.91,15.62,0.91,13.72,-53.05,-160.65,-42.15,-4.65,34.36,118.31,
06/01/2021,01:10:07.34,228.52,-876.46,17.58,0.06,15.00,-48.72,-160.65,-42.15,-4.65,34.31,118.31,
06/01/2021,01:10:07.35,230.96,-878.42,21.00,-1.77,16.04,-41.89,-160.65,-42.15,-4.65,34.31,118.31,
06/01/2021,01:10:07.36,229.98,-907.71,10.74,-2.44,19.63,-29.33,-158.70,-43.50,-4.95,34.21,118.31,
06/01/2021,01:10:07.37,240.72,-931.64,19.53,-5.85,22.01,-22.56,-158.70,-43.50,-4.95,34.31,118.31,
06/01/2021,01:10:07.38,239.26,-923.83,12.21,-5.79,22.93,-15.49,-158.70,-43.50,-4.95,34.21,118.31,
06/01/2021,01:10:07.38,258.79,-942.38,0.00,-8.41,21.95,-10.98,-159.45,-43.20,-4.95,34.40,118.31,
06/01/2021,01:10:07.39,265.62,-952.15,-2.44,-7.56,25.06,-3.48,-159.45,-43.20,-4.95,34.36,118.31,
06/01/2021,01:10:07.40,250.98,-948.73,-3.42,-10.00,25.67,1.71,-157.80,-43.35,-5.70,34.16,118.31,
06/01/2021,01:10:07.41,269.53,-947.75,-19.04,-10.73,29.76,20.91,-160.05,-42.90,-4.65,34.50,118.31,
06/01/2021,01:10:07.42,281.25,-949.22,-25.39,-12.50,29.02,24.02,-160.95,-43.95,-3.15,34.31,118.31,
06/01/2021,01:10:07.42,271.48,-948.73,-21.00,-13.05,29.15,31.65,-157.65,-42.75,-4.95,34.40,118.31,
06/01/2021,01:10:07.43,291.50,-957.03,-32.23,-13.60,31.89,32.62,-157.65,-42.75,-4.95,34.36,118.32,
06/01/2021,01:10:07.43,280.76,-972.66,-32.71,-14.27,30.18,41.34,-157.35,-43.95,-5.55,34.31,118.32,
06/01/2021,01:10:07.45,285.64,-1067.38,-27.83,-15.73,38.35,56.40,-156.75,-41.10,-5.10,34.40,118.31,
06/01/2021,01:10:07.46,306.64,-1121.58,-16.60,-16.83,40.43,59.70,-159.75,-44.70,-2.70,34.31,118.31,
06/01/2021,01:10:07.46,295.90,-1155.27,-14.65,-17.26,41.46,68.48,-157.65,-42.75,-4.95,34.16,118.32,
06/01/2021,01:10:07.47,312.99,-1189.94,-19.04,-16.65,40.18,76.65,-157.65,-42.75,-4.95,34.21,118.32,
06/01/2021,01:10:07.47,328.61,-1208.01,-1.95,-18.11,42.20,82.50,-157.65,-42.75,-4.95,34.31,118.32,
06/01/2021,01:10:07.49,390.62,-1179.69,-38.09,-13.29,36.77,98.23,-155.10,-44.25,-4.50,34.12,118.31,
06/01/2021,01:10:07.50,401.86,-1163.57,-62.50,-11.40,34.15,104.51,-156.60,-45.75,-2.40,34.36,118.32,
06/01/2021,01:10:07.50,409.18,-1123.54,-84.47,-10.61,29.27,107.01,-156.60,-45.75,-2.40,34.31,118.32,
06/01/2021,01:10:07.51,432.62,-1096.68,-112.79,-8.35,22.62,113.17,-156.60,-45.75,-2.40,34.40,118.32,
06/01/2021,01:10:07.51,448.73,-1059.08,-125.49,-5.98,15.85,118.23,-153.90,-45.15,-4.05,34.21,118.32,
06/01/2021,01:10:07.53,493.16,-971.19,-188.96,-3.60,2.38,120.91,-154.05,-45.45,-6.30,34.31,118.32,
06/01/2021,01:10:07.54,497.07,-938.48,-227.05,-4.45,-3.90,122.56,-154.05,-45.45,-6.30,34.40,118.32,
06/01/2021,01:10:07.54,503.91,-896.00,-229.00,-2.74,-10.73,117.62,-154.20,-47.10,-6.15,34.40,118.32,
06/01/2021,01:10:07.55,526.37,-883.79,-248.05,-4.33,-17.38,119.21,-154.20,-47.10,-6.15,34.31,118.32,
06/01/2021,01:10:07.55,540.53,-882.81,-273.93,-3.78,-20.85,116.83,-152.40,-46.35,-5.10,34.40,118.32,
06/01/2021,01:10:07.57,540.53,-881.35,-269.04,-2.99,-32.56,111.16,-152.40,-46.35,-5.10,34.31,118.32,
06/01/2021,01:10:07.58,537.11,-894.53,-276.37,-5.18,-38.17,103.48,-153.90,-47.85,-3.60,34.21,118.32,
06/01/2021,01:10:07.58,518.07,-903.32,-272.95,-5.91,-38.48,98.41,-151.95,-45.00,-4.95,34.31,118.32,
06/01/2021,01:10:07.59,504.88,-914.55,-271.48,-6.59,-41.52,90.06,-151.95,-45.00,-4.95,34.50,118.32,
06/01/2021,01:10:07.59,500.98,-933.59,-271.48,-7.13,-38.29,85.43,-152.25,-48.30,-3.75,34.21,118.32,
06/01/2021,01:10:07.61,459.47,-971.19,-273.93,-7.44,-32.26,70.67,-152.10,-47.85,-4.65,34.02,118.32,
06/01/2021,01:10:07.62,428.22,-995.12,-270.02,-9.70,-26.40,63.29,-153.45,-49.35,-3.30,34.36,118.32,
06/01/2021,01:10:07.62,409.67,-1007.32,-270.02,-9.88,-17.68,57.56,-152.40,-47.10,-6.15,34.36,118.32,
06/01/2021,01:10:07.63,403.81,-1038.57,-278.32,-10.37,-6.28,51.04,-152.40,-47.10,-6.15,34.36,118.32,
06/01/2021,01:10:07.63,385.74,-1038.57,-271.00,-12.01,7.68,43.48,-150.30,-46.65,-5.70,34.31,118.32,
06/01/2021,01:10:07.65,376.95,-1052.73,-278.32,-16.77,37.62,27.20,-150.45,-49.05,-3.45,34.21,118.32,
06/01/2021,01:10:07.66,362.79,-1050.29,-260.74,-17.50,53.72,24.39,-150.45,-49.05,-3.45,34.50,118.32,
06/01/2021,01:10:07.66,372.56,-1053.71,-242.68,-19.39,65.98,18.29,-150.45,-49.05,-3.45,34.40,118.32,
06/01/2021,01:10:07.67,394.04,-1037.60,-232.91,-19.82,71.89,13.29,-150.45,-49.05,-3.45,34.02,118.32,
06/01/2021,01:10:07.67,416.99,-1031.74,-213.87,-21.59,82.62,5.43,-149.55,-48.60,-4.65,33.78,118.32,
06/01/2021,01:10:07.69,417.48,-954.59,-162.60,-22.99,92.07,-2.01,-151.05,-47.40,-6.45,34.40,118.32,
06/01/2021,01:10:07.70,414.55,-935.06,-165.04,-21.71,94.63,-2.01,-151.05,-47.40,-6.45,34.36,118.32,
06/01/2021,01:10:07.70,422.85,-912.11,-144.53,-24.02,95.79,-5.85,-149.55,-49.35,-5.40,34.21,118.32,
06/01/2021,01:10:07.71,439.45,-884.28,-121.58,-20.06,95.43,-7.07,-149.55,-49.35,-5.40,34.36,118.32,
06/01/2021,01:10:07.71,427.73,-853.03,-113.77,-21.28,94.51,-10.91,-147.60,-48.30,-4.95,34.36,118.32,
06/01/2021,01:10:07.76,413.09,-763.67,-35.16,-15.30,57.62,-8.11,-149.70,-49.05,-3.75,34.40,118.31,
06/01/2021,01:10:07.77,394.04,-785.64,-27.34,-14.33,44.09,-4.70,-148.20,-51.75,-4.50,34.02,118.31,
06/01/2021,01:10:07.78,398.93,-777.83,-25.39,-12.62,40.91,0.24,-148.20,-51.75,-4.50,34.31,118.31,
06/01/2021,01:10:07.78,389.16,-779.30,-28.32,-13.54,35.73,3.84,-147.30,-49.35,-4.65,34.02,118.31,
06/01/2021,01:10:07.79,380.86,-794.43,-27.83,-11.59,29.94,4.76,-146.40,-49.50,-6.00,34.40,118.31,
06/01/2021,01:10:07.80,381.84,-803.22,-10.74,-6.65,17.80,15.55,-145.80,-47.70,-5.25,34.16,118.31,
06/01/2021,01:10:07.81,385.74,-790.53,-28.81,-8.72,15.55,18.54,-147.90,-50.25,-3.45,34.12,118.31,
06/01/2021,01:10:07.82,391.11,-795.41,-10.74,-7.87,10.18,21.95,-147.90,-50.25,-3.45,34.21,118.31,
06/01/2021,01:10:07.82,395.51,-791.50,-21.97,-6.04,6.34,27.99,-146.25,-49.35,-5.10,34.12,118.31,
06/01/2021,01:10:07.83,415.04,-802.73,-31.25,-5.79,3.48,31.89,-144.90,-50.85,-5.10,34.31,118.31,
06/01/2021,01:10:07.84,408.20,-800.29,-45.41,-2.44,-7.20,40.91,-146.70,-50.85,-4.35,34.21,118.31,
06/01/2021,01:10:07.85,414.55,-801.27,-44.92,-4.51,-9.82,39.82,-146.70,-50.85,-4.35,34.31,118.31,
06/01/2021,01:10:07.86,412.60,-803.71,-34.18,-0.91,-10.24,45.98,-146.70,-50.85,-4.35,34.31,118.31,
06/01/2021,01:10:07.86,412.60,-793.95,-34.67,0.18,-17.20,48.35,-145.05,-48.75,-4.95,34.16,118.31,
06/01/2021,01:10:07.87,421.39,-804.20,-43.95,0.06,-20.79,50.43,-145.20,-48.75,-4.95,34.40,118.31,
06/01/2021,01:10:07.87,429.20,-810.55,-54.69,4.70,-22.44,54.33,-145.20,-49.35,-5.10,34.21,118.31,
06/01/2021,01:10:07.89,452.64,-830.08,-59.08,7.13,-28.35,54.94,-146.85,-50.55,-5.25,34.31,118.31,
06/01/2021,01:10:07.90,466.80,-845.21,-59.08,7.26,-33.35,53.05,-146.85,-50.55,-5.25,34.31,118.31,
06/01/2021,01:10:07.90,476.07,-843.26,-86.43,8.72,-32.99,50.30,-145.35,-48.75,-4.95,34.40,118.31,
06/01/2021,01:10:07.91,487.79,-843.75,-81.05,10.06,-34.94,51.52,-145.35,-48.75,-4.95,34.40,118.32,
06/01/2021,01:10:07.91,497.07,-870.12,-84.47,10.49,-38.23,49.94,-145.35,-48.75,-4.95,34.21,118.32,
06/01/2021,01:10:07.93,493.65,-879.39,-89.84,12.93,-39.33,41.46,-146.10,-51.30,-3.75,34.31,118.31,
06/01/2021,01:10:07.94,509.77,-911.13,-97.66,13.48,-40.06,37.68,-146.10,-51.30,-3.75,34.16,118.31,
06/01/2021,01:10:07.94,502.93,-936.04,-109.86,15.37,-40.30,34.88,-146.10,-51.30,-3.75,34.36,118.31,
06/01/2021,01:10:07.95,502.93,-944.34,-84.96,14.94,-41.65,29.51,-144.15,-51.30,-3.75,34.40,118.32,
06/01/2021,01:10:07.95,503.91,-976.07,-98.14,18.96,-37.20,27.38,-144.15,-48.60,-4.35,34.21,118.32,
06/01/2021,01:10:07.97,505.37,-1034.67,-109.86,20.18,-36.89,15.73,-145.95,-49.65,-4.35,34.21,118.31,
06/01/2021,01:10:07.98,500.49,-1046.88,-98.63,20.30,-34.33,14.21,-145.95,-49.65,-4.35,34.40,118.32,
06/01/2021,01:10:07.98,499.02,-1058.11,-90.82,21.95,-32.62,7.01,-144.90,-47.85,-5.10,34.21,118.32,
06/01/2021,01:10:07.99,520.51,-1084.47,-100.59,22.87,-30.00,4.94,-144.30,-48.30,-6.60,34.55,118.32,
06/01/2021,01:10:07.99,493.65,-1097.17,-94.73,22.07,-27.74,-4.09,-144.30,-48.30,-6.60,34.31,118.32,
06/01/2021,01:10:08.01,494.63,-1212.40,-127.44,24.63,-17.50,-9.94,-146.25,-49.35,-4.35,34.31,118.32,
06/01/2021,01:10:08.01,520.02,-1276.86,-125.49,26.28,-14.27,-11.34,-146.25,-49.35,-4.35,34.40,118.32,
06/01/2021,01:10:08.02,529.79,-1350.59,-132.32,25.18,-11.40,-13.96,-145.05,-49.05,-5.55,34.40,118.32,
06/01/2021,01:10:08.03,556.64,-1398.44,-130.37,23.41,-10.12,-16.46,-144.15,-48.15,-5.70,34.36,118.32,
06/01/2021,01:10:08.03,559.57,-1436.52,-123.54,22.99,-8.60,-19.57,-144.15,-48.15,-5.70,34.21,118.32,
06/01/2021,01:10:08.05,591.80,-1413.57,-123.54,17.13,-2.38,-27.38,-147.00,-48.15,-4.05,34.36,118.32,
06/01/2021,01:10:08.05,559.57,-1375.00,-117.19,14.76,-4.70,-30.12,-147.00,-48.15,-4.05,34.21,118.32,
06/01/2021,01:10:08.06,578.61,-1318.85,-110.84,14.63,-1.77,-32.80,-145.80,-47.70,-4.95,34.36,118.32,
06/01/2021,01:10:08.07,574.22,-1277.83,-99.12,14.39,-1.04,-37.01,-145.80,-47.70,-4.95,34.31,118.32,
06/01/2021,01:10:08.07,554.69,-1248.05,-101.07,14.39,-4.21,-42.50,-145.80,-47.70,-4.95,34.36,118.32,
06/01/2021,01:10:08.09,507.32,-1187.01,-96.19,13.96,-4.33,-52.07,-146.40,-49.05,-3.75,34.16,118.32,
06/01/2021,01:10:08.09,506.35,-1157.71,-124.02,15.91,-7.32,-62.44,-146.40,-49.05,-3.75,34.21,118.32,
06/01/2021,01:10:08.10,501.95,-1114.75,-120.61,15.61,-5.00,-64.57,-146.40,-49.05,-3.75,34.50,118.32,
06/01/2021,01:10:08.11,491.70,-1091.31,-125.49,15.73,-8.84,-70.18,-146.40,-49.05,-3.75,34.40,118.32,
06/01/2021,01:10:08.11,496.09,-1051.27,-127.93,16.83,-12.20,-75.73,-145.95,-47.40,-6.45,34.21,118.32,
06/01/2021,01:10:08.13,456.05,-992.19,-122.56,14.70,-17.99,-82.07,-146.40,-48.30,-6.00,34.40,118.32,
06/01/2021,01:10:08.13,439.94,-962.89,-97.17,17.32,-22.13,-84.63,-146.40,-48.30,-6.00,34.31,118.32,
06/01/2021,01:10:08.14,426.27,-947.75,-115.23,18.05,-22.44,-87.50,-147.75,-47.10,-5.40,34.16,118.32,
06/01/2021,01:10:08.15,402.83,-963.38,-103.03,16.46,-28.11,-91.10,-147.60,-46.50,-4.95,34.16,118.32,
06/01/2021,01:10:08.15,387.70,-957.03,-115.72,15.85,-29.63,-91.10,-147.60,-46.50,-4.95,34.21,118.32,
06/01/2021,01:10:08.17,366.21,-944.82,-85.45,16.16,-29.63,-91.40,-151.05,-47.40,-4.05,34.31,118.32,
06/01/2021,01:10:08.17,374.51,-952.64,-68.85,14.45,-31.59,-92.68,-151.05,-47.40,-4.05,34.31,118.32,
06/01/2021,01:10:08.18,365.23,-958.98,-55.66,15.37,-32.74,-88.78,-149.55,-46.35,-3.30,34.21,118.32,
06/01/2021,01:10:08.19,358.40,-960.94,-60.06,14.70,-31.52,-85.43,-150.75,-46.20,-4.20,34.36,118.32,
06/01/2021,01:10:08.19,356.45,-981.93,-64.94,13.41,-32.74,-83.66,-150.75,-46.20,-4.20,34.31,118.32,
06/01/2021,01:10:08.21,349.12,-979.00,-55.18,10.12,-39.45,-76.46,-150.30,-46.65,-3.00,34.36,118.32,
06/01/2021,01:10:08.21,352.54,-977.54,-48.83,6.52,-40.73,-74.21,-150.30,-46.65,-3.00,34.12,118.32,
06/01/2021,01:10:08.22,348.63,-976.07,-30.76,7.68,-44.02,-71.71,-151.95,-45.45,-4.50,34.21,118.32,
06/01/2021,01:10:08.23,340.82,-974.12,-31.25,5.00,-46.46,-69.45,-151.95,-45.45,-4.50,34.40,118.32,
06/01/2021,01:10:08.23,333.01,-989.26,-26.86,3.90,-48.35,-64.51,-151.95,-45.45,-4.50,34.36,118.32,
06/01/2021,01:10:08.27,306.64,-933.59,-0.49,-5.91,-46.95,-44.94,-154.95,-46.65,-1.80,34.36,118.31,
06/01/2021,01:10:08.29,316.41,-932.13,9.28,-7.74,-46.65,-40.18,-155.55,-46.20,-3.75,34.12,118.31,
06/01/2021,01:10:08.29,300.29,-913.09,12.21,-7.32,-46.34,-39.70,-155.55,-46.20,-3.75,34.31,118.31,
06/01/2021,01:10:08.30,299.80,-914.55,12.70,-8.41,-41.77,-36.83,-155.85,-46.50,-5.55,34.31,118.31,
06/01/2021,01:10:08.31,301.27,-907.23,11.23,-9.82,-42.32,-36.52,-154.20,-44.40,-4.65,34.21,118.31,
06/01/2021,01:10:08.32,294.43,-885.25,2.93,-10.30,-33.29,-38.41,-154.20,-44.40,-4.65,34.12,118.31,
06/01/2021,01:10:08.33,298.34,-885.74,11.23,-9.45,-32.93,-35.79,-157.65,-45.45,-3.45,34.02,118.31,
06/01/2021,01:10:08.33,296.88,-875.00,-1.95,-9.21,-27.01,-38.41,-157.65,-45.45,-3.45,34.40,118.31,
06/01/2021,01:10:08.34,283.20,-867.19,-1.46,-10.73,-22.56,-37.38,-155.10,-44.70,-6.30,34.02,118.31,
06/01/2021,01:10:08.35,271.97,-885.25,23.93,-10.12,-22.62,-38.66,-156.60,-43.50,-5.55,34.02,118.31,
06/01/2021,01:10:08.36,270.02,-857.42,23.44,-13.29,-14.57,-42.01,-155.70,-47.10,-6.15,34.31,118.31,
06/01/2021,01:10:08.37,266.11,-860.35,6.84,-10.98,-10.98,-40.49,-158.70,-45.45,-3.45,34.36,118.31,
06/01/2021,01:10:08.37,271.97,-853.03,27.34,-11.77,-7.68,-40.79,-158.70,-45.45,-3.45,34.36,118.31,
06/01/2021,01:10:08.38,269.04,-851.07,26.37,-11.71,-3.17,-39.45,-156.90,-44.70,-5.55,34.31,118.31,
06/01/2021,01:10:08.39,269.04,-854.49,44.92,-10.30,-2.74,-41.71,-157.65,-45.00,-5.55,34.50,118.31,
06/01/2021,01:10:08.39,270.02,-856.45,37.60,-11.46,-4.09,-42.56,-157.65,-45.00,-5.55,34.40,118.32,
06/01/2021,01:10:08.41,249.51,-855.47,35.16,-9.94,7.32,-40.61,-158.55,-45.60,-4.35,34.36,118.31,
06/01/2021,01:10:08.41,258.79,-847.66,53.22,-9.09,6.83,-42.38,-158.55,-45.60,-4.35,34.40,118.31,
06/01/2021,01:10:08.42,258.30,-856.45,31.74,-9.70,7.13,-41.34,-158.55,-45.60,-4.35,34.21,118.32,
06/01/2021,01:10:08.43,249.51,-853.03,43.95,-8.72,7.87,-42.20,-157.65,-42.75,-7.05,34.40,118.32,
06/01/2021,01:10:08.43,237.79,-843.26,42.48,-7.68,8.66,-38.41,-157.65,-42.75,-7.05,34.31,118.32,
06/01/2021,01:10:08.45,243.65,-833.50,45.41,-7.56,11.95,-35.73,-156.90,-44.70,-7.65,34.40,118.31,
06/01/2021,01:10:08.45,250.98,-838.87,53.71,-7.62,14.88,-33.23,-156.90,-44.70,-7.65,34.16,118.32,
06/01/2021,01:10:08.46,244.14,-830.57,49.80,-6.95,16.10,-33.17,-157.95,-42.00,-4.95,33.97,118.32,
06/01/2021,01:10:08.47,241.70,-819.82,59.57,-6.89,19.09,-30.18,-157.80,-44.40,-6.15,34.16,118.32,
06/01/2021,01:10:08.47,244.63,-840.33,54.69,-4.33,20.37,-25.98,-157.80,-44.40,-6.15,34.21,118.32,
06/01/2021,01:10:08.49,250.98,-854.98,64.45,-7.93,22.56,-18.72,-159.75,-45.45,-4.95,34.12,118.32,
06/01/2021,01:10:08.49,248.54,-847.66,42.97,-5.43,20.49,-15.43,-159.75,-45.45,-4.95,34.36,118.32,
06/01/2021,01:10:08.50,241.21,-860.84,50.78,-5.61,22.99,-10.49,-157.65,-43.50,-6.00,34.16,118.32,
06/01/2021,01:10:08.50,251.46,-854.00,43.95,-5.67,23.35,-4.70,-157.65,-43.50,-6.00,34.21,118.32,
06/01/2021,01:10:08.51,238.77,-860.84,37.60,-6.40,21.83,-1.28,-157.65,-43.50,-6.00,34.50,118.32,
06/01/2021,01:10:08.53,258.30,-900.39,34.18,-8.72,24.45,12.56,-158.25,-44.85,-3.30,34.31,118.32,
06/01/2021,01:10:08.53,259.28,-917.48,24.90,-8.48,23.29,21.52,-158.25,-44.85,-3.30,34.40,118.32,
06/01/2021,01:10:08.54,249.51,-928.71,25.39,-10.55,21.71,28.54,-157.35,-45.00,-5.25,34.12,118.32,
06/01/2021,01:10:08.54,255.37,-945.80,26.37,-11.40,23.66,30.85,-156.15,-45.00,-5.25,34.40,118.32,
06/01/2021,01:10:08.55,253.91,-963.38,23.93,-12.13,23.48,40.91,-156.15,-44.25,-6.00,34.31,118.32,
06/01/2021,01:10:08.57,280.27,-1009.28,14.65,-13.35,30.06,56.59,-157.65,-46.20,-4.20,34.21,118.32,
06/01/2021,01:10:08.57,278.81,-1014.16,9.28,-13.90,29.51,64.63,-157.65,-46.20,-4.20,34.21,118.32,
06/01/2021,01:10:08.58,285.64,-1052.73,19.53,-13.35,33.60,70.30,-157.05,-45.15,-6.15,34.40,118.32,
06/01/2021,01:10:08.58,279.79,-1108.40,26.37,-15.73,36.40,77.99,-157.05,-45.15,-6.15,34.31,118.32,
06/01/2021,01:10:08.59,289.06,-1156.74,26.86,-17.56,39.09,87.13,-155.10,-46.20,-5.55,34.50,118.32,
06/01/2021,01:10:08.61,312.99,-1296.39,44.92,-17.62,41.52,110.49,-154.95,-44.85,-7.20,34.21,118.32,
06/01/2021,01:10:08.61,344.24,-1310.55,41.99,-14.82,43.29,117.56,-154.95,-44.85,-7.20,34.50,118.32,
06/01/2021,01:10:08.62,371.58,-1312.01,6.84,-14.94,43.17,124.94,-154.05,-46.95,-4.95,34.36,118.32,
06/01/2021,01:10:08.62,401.86,-1288.09,11.23,-14.51,39.39,128.35,-154.05,-46.50,-6.60,34.31,118.32,
06/01/2021,01:10:08.63,415.53,-1243.16,-11.72,-13.72,36.52,136.28,-154.05,-46.50,-6.60,34.12,118.32,
06/01/2021,01:10:08.65,461.43,-1155.27,-87.89,-10.18,26.10,144.88,-153.45,-48.60,-4.65,34.21,118.32,
06/01/2021,01:10:08.65,479.98,-1125.98,-123.05,-9.88,20.49,146.46,-153.45,-48.60,-4.65,34.31,118.32,
06/01/2021,01:10:08.66,519.53,-1108.89,-157.23,-7.56,15.98,147.50,-152.40,-48.60,-4.35,34.31,118.32,
06/01/2021,01:10:08.66,529.79,-1078.61,-179.20,-10.43,9.51,145.30,-152.40,-48.60,-4.35,34.40,118.32,
06/01/2021,01:10:08.67,552.25,-1039.06,-192.38,-7.80,5.30,145.55,-152.40,-48.60,-4.35,34.21,118.32,
06/01/2021,01:10:08.68,566.89,-997.56,-220.21,-7.68,0.06,142.20,-150.75,-47.70,-6.00,34.36,118.32,
06/01/2021,01:10:08.69,604.49,-886.72,-240.72,-7.99,-13.72,128.29,-149.85,-48.90,-6.45,34.36,118.32,
06/01/2021,01:10:08.70,626.95,-864.26,-239.75,-8.23,-21.40,124.57,-149.85,-48.90,-6.45,34.21,118.32,
06/01/2021,01:10:08.70,615.23,-839.36,-229.00,-7.93,-23.17,113.96,-148.95,-48.30,-6.00,34.36,118.32,
06/01/2021,01:10:08.71,607.91,-845.70,-237.79,-6.59,-22.74,103.11,-148.95,-48.30,-6.00,34.31,118.32,
06/01/2021,01:10:08.72,588.87,-844.73,-241.70,-6.52,-23.41,90.91,-149.10,-49.65,-5.70,34.36,118.32,
06/01/2021,01:10:08.73,547.85,-890.14,-251.95,-4.27,-16.77,66.89,-147.75,-47.85,-6.15,34.31,118.32,
06/01/2021,01:10:08.74,534.18,-902.83,-259.28,-5.24,-14.88,56.22,-150.30,-50.85,-3.30,34.21,118.32,
06/01/2021,01:10:08.74,511.72,-932.13,-258.79,-3.84,-8.41,44.63,-148.20,-51.00,-6.00,34.21,118.32,
06/01/2021,01:10:08.75,482.42,-964.36,-245.61,-2.99,-1.59,32.13,-148.20,-51.00,-6.00,34.12,118.32,
06/01/2021,01:10:08.78,389.65,-1094.24,-272.46,-7.56,60.24,-12.20,-148.95,-49.80,-5.25,34.21,118.32,
06/01/2021,01:10:08.81,400.39,-1125.00,-220.21,-10.79,103.96,-29.21,-147.30,-50.10,-5.40,34.31,118.31,
06/01/2021,01:10:08.81,401.37,-1115.23,-199.71,-10.85,110.73,-36.83,-149.10,-49.35,-6.15,34.21,118.31,
06/01/2021,01:10:08.82,410.64,-1103.03,-195.80,-10.37,117.32,-35.98,-149.10,-49.35,-6.15,34.36,118.31,
06/01/2021,01:10:08.82,431.64,-1078.12,-197.75,-11.59,120.85,-38.05,-149.10,-49.35,-6.15,34.36,118.31,
06/01/2021,01:10:08.83,428.71,-1062.01,-179.69,-15.18,120.85,-38.41,-149.10,-49.35,-6.15,34.21,118.31,
06/01/2021,01:10:08.85,469.73,-960.94,-146.97,-15.06,117.68,-38.90,-146.70,-49.35,-4.05,34.21,118.31,
06/01/2021,01:10:08.85,475.10,-920.41,-145.02,-15.91,110.12,-38.41,-146.70,-49.35,-4.05,34.36,118.31,
06/01/2021,01:10:08.86,492.19,-887.21,-125.98,-15.06,104.76,-39.70,-146.70,-49.35,-4.05,34.36,118.31,
06/01/2021,01:10:08.86,473.14,-853.03,-132.32,-14.88,100.79,-39.02,-144.45,-48.60,-6.15,34.40,118.31,
06/01/2021,01:10:08.87,468.75,-825.20,-128.42,-13.90,93.48,-36.89,-144.45,-48.60,-6.15,34.40,118.32,
06/01/2021,01:10:08.89,441.89,-773.93,-103.03,-11.65,68.84,-34.39,-146.40,-51.00,-6.00,34.21,118.31,
06/01/2021,01:10:08.89,439.94,-768.55,-102.54,-14.21,60.79,-31.89,-147.15,-50.25,-5.25,34.31,118.31,
06/01/2021,01:10:08.90,424.32,-765.14,-98.14,-11.71,52.44,-29.27,-147.15,-50.25,-5.25,34.21,118.31,
06/01/2021,01:10:08.90,427.25,-735.35,-99.12,-12.44,49.76,-29.27,-144.60,-48.30,-7.35,34.50,118.32,
06/01/2021,01:10:08.91,405.76,-736.33,-92.77,-10.67,41.89,-23.72,-144.00,-49.50,-7.35,34.31,118.32,
06/01/2021,01:10:08.93,394.53,-721.68,-92.77,-12.20,29.76,-18.72,-144.90,-49.65,-4.65,34.50,118.31,
06/01/2021,01:10:08.93,395.02,-726.56,-89.36,-10.00,21.16,-14.45,-145.35,-51.30,-5.55,34.31,118.32,
06/01/2021,01:10:08.94,389.16,-715.33,-84.47,-11.46,19.57,-12.01,-145.35,-51.30,-5.55,34.40,118.32,
06/01/2021,01:10:08.94,394.04,-716.31,-71.78,-7.74,18.29,-4.82,-143.40,-50.40,-5.70,34.21,118.32,
06/01/2021,01:10:08.95,376.95,-718.75,-84.47,-8.78,12.38,-0.06,-143.40,-50.40,-5.70,34.50,118.32,
06/01/2021,01:10:08.97,369.63,-733.89,-78.12,-8.60,5.43,10.12,-143.70,-49.65,-5.70,34.40,118.32,
06/01/2021,01:10:08.97,366.21,-743.65,-70.80,-8.66,-2.32,13.35,-144.60,-51.30,-5.25,34.40,118.32,
06/01/2021,01:10:08.98,381.35,-744.63,-67.87,-7.26,-1.34,15.91,-144.60,-51.30,-5.25,34.31,118.32,
06/01/2021,01:10:08.98,369.63,-739.26,-63.48,-7.74,-0.37,23.78,-144.60,-51.30,-5.25,34.02,118.32,
06/01/2021,01:10:08.99,385.25,-755.37,-70.80,-6.22,-3.54,24.09,-144.60,-51.30,-5.25,34.31,118.32,
06/01/2021,01:10:09.01,396.97,-790.04,-48.34,-4.63,-15.91,33.11,-145.80,-51.75,-5.55,34.21,118.32,
06/01/2021,01:10:09.01,401.37,-781.25,-39.06,-3.11,-15.98,38.17,-145.80,-51.75,-5.55,34.21,118.32,
06/01/2021,01:10:09.02,395.51,-809.57,-54.69,-2.38,-17.07,43.48,-145.80,-51.75,-5.55,33.88,118.32,
06/01/2021,01:10:09.02,413.09,-808.11,-51.27,-1.65,-23.60,45.24,-144.60,-48.75,-6.60,34.12,118.32,
06/01/2021,01:10:09.03,421.39,-808.59,-43.46,1.59,-26.46,46.89,-144.60,-48.75,-6.60,34.16,118.32,
06/01/2021,01:10:09.04,436.52,-840.33,-48.83,3.17,-33.29,51.65,-144.00,-50.55,-6.00,34.31,118.32,
06/01/2021,01:10:09.05,454.10,-842.29,-37.60,4.02,-42.32,52.13,-144.30,-51.75,-6.30,34.31,118.32,
06/01/2021,01:10:09.06,449.71,-849.12,-57.13,6.83,-41.71,54.33,-144.30,-51.75,-6.30,34.12,118.32,
06/01/2021,01:10:09.06,470.21,-868.65,-51.27,7.26,-46.22,51.65,-143.70,-50.85,-7.20,34.21,118.32,
06/01/2021,01:10:09.07,450.68,-874.02,-55.66,9.02,-47.80,55.61,-143.70,-50.85,-7.20,34.12,118.32,
06/01/2021,01:10:09.08,470.21,-902.34,-78.61,10.43,-52.62,48.78,-143.40,-52.65,-5.40,34.50,118.32,
06/01/2021,01:10:09.09,485.84,-933.59,-66.41,13.41,-53.35,51.34,-145.05,-50.55,-6.00,34.36,118.32,
06/01/2021,01:10:09.10,480.96,-956.05,-72.27,12.99,-56.95,44.15,-145.05,-50.55,-6.00,34.31,118.32,
06/01/2021,01:10:09.10,496.58,-976.56,-69.82,14.39,-53.90,45.61,-142.65,-50.10,-7.95,34.36,118.32,
06/01/2021,01:10:09.11,489.26,-989.26,-68.36,14.88,-52.07,40.85,-142.65,-50.10,-7.95,34.31,118.32,
06/01/2021,01:10:09.12,511.23,-1033.69,-62.99,17.26,-53.48,30.91,-142.65,-50.40,-4.65,34.31,118.32,
06/01/2021,01:10:09.13,507.81,-1036.13,-68.36,17.01,-50.98,28.84,-144.00,-50.25,-6.00,34.12,118.32,
06/01/2021,01:10:09.14,514.65,-1027.83,-58.11,16.52,-48.66,22.07,-144.00,-50.25,-6.00,34.21,118.32,
06/01/2021,01:10:09.14,521.48,-1050.78,-68.85,21.59,-51.65,20.61,-143.25,-49.50,-6.60,34.12,118.32,
06/01/2021,01:10:09.15,510.25,-1048.34,-68.36,21.95,-45.00,10.61,-143.25,-49.50,-6.60,34.31,118.32,
06/01/2021,01:10:09.16,494.63,-1044.92,-76.17,23.54,-37.32,-1.28,-145.95,-49.65,-4.35,34.16,118.32,
06/01/2021,01:10:09.17,496.09,-1052.73,-90.33,27.20,-36.65,-6.89,-144.90,-50.85,-6.15,33.88,118.32,
06/01/2021,01:10:09.18,498.05,-1052.73,-88.87,25.67,-34.15,-8.41,-144.90,-50.85,-6.15,34.31,118.32,
06/01/2021,01:10:09.18,497.56,-1087.89,-107.42,29.02,-30.43,-13.78,-142.65,-49.35,-5.70,34.21,118.32,
06/01/2021,01:10:09.19,476.56,-1130.86,-103.03,29.45,-29.09,-12.50,-142.65,-49.35,-5.70,34.36,118.32,
06/01/2021,01:10:09.20,519.04,-1250.00,-110.84,28.29,-18.23,-20.12,-143.25,-48.75,-5.55,34.31,118.32,
06/01/2021,01:10:09.21,507.81,-1267.58,-113.77,27.32,-17.07,-21.77,-145.20,-49.35,-4.35,34.31,118.32,
06/01/2021,01:10:09.22,532.23,-1265.62,-100.59,22.32,-13.78,-24.45,-145.20,-49.35,-4.35,34.02,118.32,
06/01/2021,01:10:09.22,527.34,-1271.48,-87.40,22.74,-14.82,-25.55,-145.35,-49.80,-6.00,34.36,118.32,
06/01/2021,01:10:09.23,529.30,-1232.42,-88.38,18.60,-13.48,-28.11,-145.35,-49.80,-6.00,34.36,118.32,
06/01/2021,01:10:09.24,512.70,-1200.68,-61.52,17.87,-13.35,-35.67,-144.90,-48.60,-5.40,34.31,118.32,
06/01/2021,01:10:09.25,508.30,-1170.90,-72.27,18.23,-15.55,-37.38,-147.15,-47.70,-5.25,34.31,118.32,
06/01/2021,01:10:09.26,513.18,-1167.97,-57.13,16.28,-15.00,-37.93,-147.15,-47.70,-5.25,34.21,118.32,
06/01/2021,01:10:09.31,453.61,-1037.11,-58.59,23.54,-45.00,-63.29,-148.80,-48.60,-2.55,34.36,118.31,
06/01/2021,01:10:09.32,435.06,-1034.18,-46.88,24.39,-51.65,-66.10,-148.95,-49.50,-4.50,34.36,118.31,
06/01/2021,01:10:09.34,409.18,-1019.04,-45.41,22.01,-58.29,-70.91,-151.05,-48.60,-3.60,34.31,118.31,
06/01/2021,01:10:09.35,396.00,-1013.18,-41.02,21.34,-61.95,-67.99,-151.05,-48.60,-3.60,34.12,118.31,
06/01/2021,01:10:09.35,396.97,-1014.16,-54.20,22.56,-63.05,-67.93,-148.80,-46.35,-4.65,34.21,118.31,
06/01/2021,01:10:09.36,384.77,-1007.81,-56.15,20.43,-61.95,-66.28,-148.80,-46.35,-4.65,34.40,118.31,
06/01/2021,01:10:09.36,376.95,-1024.41,-56.64,17.87,-64.33,-65.55,-149.70,-45.00,-4.50,34.31,118.31,
06/01/2021,01:10:09.38,361.82,-1018.07,-46.88,14.02,-64.39,-60.55,-151.50,-48.00,-4.50,34.21,118.31,
06/01/2021,01:10:09.39,375.49,-1017.58,-36.62,13.29,-65.67,-59.76,-151.50,-48.00,-4.50,34.12,118.31,
06/01/2021,01:10:09.39,365.23,-1014.65,-37.60,11.59,-64.27,-60.18,-151.05,-45.90,-5.10,34.36,118.31,
06/01/2021,01:10:09.40,353.52,-1004.88,-34.67,9.39,-63.29,-57.93,-151.05,-45.90,-5.10,34.31,118.31,
06/01/2021,01:10:09.40,370.61,-993.65,-29.79,7.93,-63.05,-55.61,-150.60,-44.85,-5.70,34.21,118.31,
06/01/2021,01:10:09.42,341.80,-972.17,4.88,5.43,-63.11,-55.12,-151.95,-47.25,-4.95,34.36,118.31,
06/01/2021,01:10:09.42,330.57,-975.59,2.93,3.35,-60.79,-53.84,-151.95,-47.25,-4.95,33.97,118.31,
06/01/2021,01:10:09.43,339.84,-968.75,-1.95,2.62,-60.18,-53.41,-153.15,-44.85,-6.15,34.21,118.31,
06/01/2021,01:10:09.44,333.50,-947.75,12.21,2.56,-58.54,-50.43,-153.15,-44.85,-6.15,34.21,118.31,
06/01/2021,01:10:09.44,332.03,-936.52,-1.46,0.18,-57.32,-51.16,-153.90,-45.15,-5.70,34.21,118.31,
06/01/2021,01:10:09.45,316.89,-929.20,15.14,1.52,-57.32,-50.43,-153.90,-45.15,-5.70,34.16,118.31,
06/01/2021,01:10:09.46,298.34,-912.11,11.23,1.59,-54.82,-48.41,-154.95,-45.90,-5.40,34.31,118.31,
06/01/2021,01:10:09.47,313.96,-904.79,18.55,0.49,-51.52,-48.96,-155.85,-45.75,-4.50,34.12,118.31,
06/01/2021,01:10:09.48,315.43,-898.93,7.81,0.73,-51.52,-49.57,-155.85,-45.75,-4.50,34.50,118.31,
06/01/2021,01:10:09.48,285.16,-884.28,23.93,0.67,-44.70,-48.96,-155.85,-45.75,-4.50,34.31,118.31,
06/01/2021,01:10:09.49,303.22,-876.95,24.90,-1.28,-46.52,-49.88,-154.80,-45.45,-6.30,34.31,118.31,
06/01/2021,01:10:09.50,294.92,-862.79,20.51,-1.34,-38.35,-49.82,-157.35,-45.75,-6.30,34.31,118.31,
06/01/2021,01:10:09.51,285.64,-856.93,20.02,-0.43,-36.52,-50.00,-157.35,-45.75,-6.30,34.31,118.31,
06/01/2021,01:10:09.52,290.04,-853.03,21.97,-1.59,-34.21,-50.91,-157.35,-45.75,-6.30,34.40,118.31,
06/01/2021,01:10:09.52,296.88,-859.86,26.86,1.77,-33.54,-50.55,-157.50,-43.65,-6.90,34.21,118.31,
06/01/2021,01:10:09.53,288.09,-872.56,23.44,-0.12,-30.79,-48.60,-156.90,-44.25,-6.60,34.21,118.31,
06/01/2021,01:10:09.54,278.32,-848.14,49.32,-1.10,-23.90,-50.24,-158.70,-46.50,-6.00,33.97,118.31,
06/01/2021,01:10:09.55,276.86,-867.19,43.46,-1.59,-24.76,-51.71,-161.85,-44.40,-5.70,34.31,118.31,
06/01/2021,01:10:09.55,276.37,-861.33,38.57,-0.43,-22.74,-49.82,-161.85,-44.40,-5.70,34.12,118.31,
06/01/2021,01:10:09.56,271.97,-868.65,37.60,-0.24,-21.65,-50.85,-159.60,-45.60,-6.90,34.02,118.31,
06/01/2021,01:10:09.57,273.44,-864.26,44.43,0.37,-18.35,-49.57,-157.80,-45.90,-6.45,34.21,118.31,
06/01/2021,01:10:09.58,271.48,-873.05,45.41,-2.56,-16.46,-46.34,-162.00,-46.50,-7.05,34.31,118.31,
06/01/2021,01:10:09.59,259.77,-876.95,45.90,-1.22,-13.84,-44.94,-160.95,-45.75,-6.30,34.40,118.31,
06/01/2021,01:10:09.59,249.51,-871.58,51.27,-1.59,-10.73,-45.49,-160.95,-45.75,-6.30,34.02,118.31,
06/01/2021,01:10:09.60,258.79,-879.39,54.69,-2.93,-8.11,-42.62,-160.35,-45.90,-7.20,34.31,118.31,
06/01/2021,01:10:09.61,265.62,-887.21,46.88,-3.54,-9.02,-41.71,-160.35,-45.90,-7.20,34.40,118.32,
06/01/2021,01:10:09.62,244.14,-883.30,53.22,-4.33,-0.55,-38.11,-161.85,-45.90,-6.90,34.31,118.31,
06/01/2021,01:10:09.63,243.16,-882.32,59.08,-3.29,0.30,-34.57,-162.00,-46.20,-6.30,34.31,118.31,
06/01/2021,01:10:09.63,250.49,-891.11,62.99,-1.65,4.76,-32.62,-162.00,-46.20,-6.30,34.40,118.31,
06/01/2021,01:10:09.64,251.46,-898.44,55.18,-3.96,7.50,-31.22,-162.00,-46.20,-6.30,34.16,118.32,
06/01/2021,01:10:09.65,252.44,-903.32,53.71,-4.15,11.65,-31.22,-162.00,-46.20,-6.30,34.12,118.32,
06/01/2021,01:10:09.66,258.30,-905.27,67.38,-4.39,17.38,-23.35,-161.70,-47.25,-5.55,34.36,118.31,
06/01/2021,01:10:09.67,257.32,-930.18,75.68,-4.76,20.18,-21.10,-161.70,-47.25,-5.55,34.16,118.32,
06/01/2021,01:10:09.67,258.30,-933.59,78.12,-4.21,21.83,-20.24,-161.70,-47.25,-5.55,34.50,118.32,
06/01/2021,01:10:09.68,257.32,-933.59,65.92,-4.76,21.77,-13.66,-159.75,-46.95,-7.35,34.31,118.32,
06/01/2021,01:10:09.69,270.02,-939.94,68.85,-4.21,20.12,-10.49,-159.75,-46.95,-7.35,34.31,118.32,
06/01/2021,01:10:09.69,274.41,-943.85,69.34,-1.95,20.73,-5.67,-159.75,-45.45,-6.30,34.31,118.32,
06/01/2021,01:10:09.71,259.77,-978.52,67.38,-3.05,23.48,2.13,-160.20,-45.75,-7.05,34.36,118.32,
06/01/2021,01:10:09.71,271.48,-979.00,62.99,-0.98,26.95,4.33,-160.20,-45.75,-7.05,34.21,118.32,
06/01/2021,01:10:09.72,291.02,-979.00,62.99,-2.74,24.02,10.98,-159.60,-45.90,-6.90,34.21,118.32,
06/01/2021,01:10:09.72,287.11,-980.96,43.95,-2.01,26.46,13.17,-159.60,-45.90,-6.90,34.31,118.32,
06/01/2021,01:10:09.73,312.50,-986.82,41.02,-0.55,25.12,17.99,-158.55,-44.85,-4.35,34.21,118.32,
06/01/2021,01:10:09.75,308.59,-1031.74,21.97,-3.54,31.10,26.04,-158.25,-44.85,-3.60,34.36,118.32,
06/01/2021,01:10:09.75,292.97,-1051.76,18.07,-2.26,33.60,33.90,-158.25,-44.85,-3.60,34.31,118.32,
06/01/2021,01:10:09.76,288.09,-1105.96,21.97,-2.26,38.66,36.71,-158.55,-46.35,-5.40,34.40,118.32,
06/01/2021,01:10:09.76,289.55,-1143.07,26.86,-2.99,40.49,41.52,-158.55,-46.35,-5.40,34.31,118.32,
06/01/2021,01:10:09.80,370.12,-1186.52,-5.86,-0.18,50.12,64.88,-157.80,-46.35,-3.00,34.31,118.31,
06/01/2021,01:10:09.82,436.52,-1085.45,-100.10,7.38,38.48,79.57,-155.70,-46.65,-3.30,34.21,118.31,
06/01/2021,01:10:09.83,454.10,-1050.78,-132.81,9.09,33.72,80.12,-155.70,-46.65,-3.30,34.21,118.31,
06/01/2021,01:10:09.83,482.91,-1027.34,-161.13,10.67,28.66,82.74,-155.70,-46.65,-3.30,34.31,118.31,
06/01/2021,01:10:09.84,505.86,-1010.25,-200.20,8.54,19.88,80.67,-154.20,-45.15,-5.10,34.12,118.31,
06/01/2021,01:10:09.85,519.53,-958.50,-208.98,8.84,13.23,82.38,-152.10,-46.35,-4.35,34.64,118.31,
06/01/2021,01:10:09.86,523.44,-863.28,-280.76,8.84,-5.49,79.09,-152.10,-46.35,-4.35,34.40,118.31,
06/01/2021,01:10:09.87,518.55,-825.20,-300.29,5.85,-8.78,75.00,-154.95,-45.60,-2.55,34.02,118.31,
06/01/2021,01:10:09.87,517.09,-821.29,-318.85,5.12,-12.20,72.01,-154.95,-45.60,-2.55,33.88,118.31,
06/01/2021,01:10:09.88,504.39,-804.20,-331.54,5.98,-15.49,67.07,-152.40,-47.40,-4.05,34.02,118.31,
06/01/2021,01:10:09.88,496.09,-793.95,-327.15,2.74,-16.89,63.29,-152.40,-47.40,-4.05,34.02,118.31,
06/01/2021,01:10:09.90,475.59,-863.28,-350.10,2.01,-17.87,53.23,-151.50,-46.95,-2.10,34.21,118.31,
06/01/2021,01:10:09.91,460.45,-863.28,-349.61,-0.79,-16.40,50.49,-152.25,-46.50,-2.70,34.40,118.31,
06/01/2021,01:10:09.91,436.52,-896.00,-343.75,-3.54,-14.82,44.09,-152.25,-46.50,-2.70,34.36,118.31,
06/01/2021,01:10:09.92,428.71,-921.88,-350.10,-3.72,-8.90,41.95,-150.30,-45.15,-3.00,34.50,118.31,
06/01/2021,01:10:09.92,408.20,-936.04,-344.73,-7.50,-1.04,36.28,-150.30,-45.15,-3.00,34.31,118.31,
06/01/2021,01:10:09.94,380.86,-1013.67,-356.45,-12.44,21.22,29.09,-151.50,-46.95,-2.40,34.12,118.31,
06/01/2021,01:10:09.95,350.10,-1055.18,-345.21,-15.37,30.73,27.07,-152.85,-46.35,-2.25,34.36,118.31,
06/01/2021,01:10:09.95,354.00,-1074.71,-347.17,-17.74,42.99,24.51,-152.85,-46.35,-2.25,34.31,118.31,
06/01/2021,01:10:09.96,353.52,-1078.12,-331.54,-19.09,54.33,22.20,-151.05,-45.60,-2.25,34.21,118.31,
06/01/2021,01:10:09.96,359.38,-1104.98,-336.43,-24.51,65.85,16.95,-150.15,-44.25,-3.45,34.16,118.31,
06/01/2021,01:10:09.98,403.32,-1084.47,-294.43,-30.12,87.01,13.41,-150.75,-46.20,-3.15,34.21,118.31,
06/01/2021,01:10:09.99,407.23,-1064.94,-273.44,-32.20,89.15,12.26,-150.75,-46.20,-3.15,34.36,118.31,
06/01/2021,01:10:09.99,423.34,-1055.66,-262.70,-32.74,96.28,10.12,-150.75,-46.20,-3.15,34.31,118.31,
06/01/2021,01:10:10.00,428.22,-1020.51,-255.86,-35.00,97.99,9.76,-147.90,-45.75,-3.75,34.40,118.31,
06/01/2021,01:10:10.00,442.38,-995.12,-244.63,-36.59,98.66,9.09,-149.10,-47.10,-3.00,34.21,118.31,
06/01/2021,01:10:10.02,428.71,-932.13,-205.08,-38.05,100.37,5.85,-149.10,-47.10,-3.00,34.50,118.31,
06/01/2021,01:10:10.03,428.71,-902.83,-189.94,-39.09,97.62,2.32,-147.90,-45.45,-1.65,34.21,118.31,
06/01/2021,01:10:10.03,440.92,-886.72,-173.34,-38.54,93.90,4.76,-147.90,-45.45,-1.65,34.40,118.31,
06/01/2021,01:10:10.04,450.68,-854.98,-146.48,-39.57,86.71,1.83,-146.70,-46.65,-3.60,34.21,118.31,
06/01/2021,01:10:10.04,430.18,-838.38,-137.70,-38.78,86.95,1.34,-146.70,-46.65,-3.60,34.36,118.31,
06/01/2021,01:10:10.05,433.59,-829.59,-113.77,-38.84,79.39,2.62,-146.70,-46.65,-3.60,34.36,118.32,
06/01/2021,01:10:10.07,394.53,-798.83,-92.77,-38.41,69.33,3.54,-147.30,-47.10,-1.20,34.36,118.31,
06/01/2021,01:10:10.07,382.81,-799.80,-78.61,-35.12,65.30,5.30,-147.30,-47.10,-1.20,34.21,118.31,
06/01/2021,01:10:10.08,381.84,-808.59,-66.89,-36.22,59.45,7.01,-145.80,-46.95,-2.40,34.31,118.31,
06/01/2021,01:10:10.08,381.35,-809.57,-76.17,-35.91,57.74,8.05,-145.35,-48.00,-4.20,34.21,118.32,
06/01/2021,01:10:10.09,379.88,-806.64,-56.15,-35.73,55.43,8.48,-145.35,-48.00,-4.20,34.36,118.32,
06/01/2021,01:10:10.11,366.70,-822.75,-41.02,-33.66,47.13,16.10,-145.05,-47.70,-3.45,34.31,118.31,
06/01/2021,01:10:10.11,352.05,-813.48,-44.43,-32.62,45.24,20.43,-145.05,-47.70,-3.45,34.31,118.31,
06/01/2021,01:10:10.12,348.63,-827.15,-30.76,-32.87,42.62,21.04,-145.80,-47.25,-1.65,34.40,118.32,
06/01/2021,01:10:10.12,364.26,-834.96,-25.39,-32.20,39.88,27.20,-142.65,-48.15,-3.60,34.36,118.32,
06/01/2021,01:10:10.13,361.33,-818.85,-33.20,-33.90,39.63,28.90,-142.65,-48.15,-3.60,34.21,118.32,
06/01/2021,01:10:10.15,372.07,-833.50,-21.00,-30.73,36.22,38.35,-144.30,-48.00,-3.15,34.31,118.32,
06/01/2021,01:10:10.15,382.81,-827.15,-21.97,-31.04,29.51,45.79,-144.30,-48.00,-3.15,34.21,118.32,
06/01/2021,01:10:10.16,390.14,-826.17,-21.97,-29.76,32.99,45.67,-141.75,-47.25,-2.10,34.12,118.32,
06/01/2021,01:10:10.16,387.21,-812.99,-14.65,-28.29,24.33,52.20,-142.20,-47.25,-3.75,34.31,118.32,
06/01/2021,01:10:10.17,402.83,-818.36,-2.44,-29.76,24.51,52.20,-142.20,-47.25,-3.75,34.21,118.32,
06/01/2021,01:10:10.18,400.39,-820.80,-8.79,-24.33,15.67,57.56,-142.20,-49.80,-3.15,34.31,118.32,
06/01/2021,01:10:10.19,396.97,-822.27,4.39,-20.85,17.80,59.94,-142.20,-49.80,-3.15,34.40,118.32,
06/01/2021,01:10:10.20,424.80,-822.27,-4.39,-21.28,13.05,60.67,-141.00,-48.00,-2.70,34.21,118.32,
06/01/2021,01:10:10.20,428.22,-819.34,-7.81,-18.72,10.67,59.57,-141.00,-48.00,-2.70,34.31,118.32,
06/01/2021,01:10:10.21,430.66,-825.68,-10.74,-17.93,5.00,60.06,-141.00,-48.00,-2.70,33.97,118.32,
06/01/2021,01:10:10.22,447.27,-802.25,-6.35,-13.23,-2.13,61.28,-141.60,-48.60,-2.55,34.21,118.32,
06/01/2021,01:10:10.23,449.22,-809.08,0.49,-10.06,-7.38,60.06,-141.60,-48.60,-2.55,34.16,118.32,
06/01/2021,01:10:10.24,454.10,-823.73,-10.74,-10.24,-8.11,60.18,-141.60,-48.60,-2.55,34.31,118.32,
06/01/2021,01:10:10.24,446.29,-816.41,-7.32,-5.91,-11.59,57.20,-141.60,-48.60,-2.55,34.40,118.32,
06/01/2021,01:10:10.25,464.84,-838.38,-10.25,-3.90,-10.12,56.16,-140.55,-48.60,-3.30,34.40,118.32,
06/01/2021,01:10:10.26,459.96,-869.14,-23.44,0.43,-12.56,52.01,-141.45,-48.75,-1.35,34.31,118.32,
06/01/2021,01:10:10.27,470.21,-896.48,-21.48,0.30,-15.24,46.10,-141.45,-48.75,-1.35,34.36,118.32,
06/01/2021,01:10:10.28,451.66,-896.97,-31.74,0.61,-15.12,46.28,-139.05,-48.15,-2.25,34.31,118.32,
06/01/2021,01:10:10.31,472.66,-1010.25,-21.00,9.09,-2.13,27.99,-139.80,-47.10,-1.50,34.36,118.31,
06/01/2021,01:10:10.32,484.38,-1041.02,-14.16,12.93,6.40,20.37,-138.30,-47.85,-1.20,34.21,118.31,
06/01/2021,01:10:10.34,474.61,-1103.03,-10.25,17.50,15.55,9.57,-138.30,-47.85,-1.20,34.31,118.31,
06/01/2021,01:10:10.34,480.47,-1154.30,-15.62,21.71,18.23,9.45,-140.70,-46.50,0.00,34.40,118.31,
06/01/2021,01:10:10.35,493.65,-1219.73,-19.04,21.59,19.76,6.40,-140.70,-46.50,0.00,34.21,118.31,
06/01/2021,01:10:10.36,500.00,-1281.25,-16.11,20.85,20.85,3.48,-137.25,-46.35,-3.30,34.36,118.31,
06/01/2021,01:10:10.36,535.16,-1345.21,-29.79,21.83,24.82,2.20,-137.25,-46.35,-3.30,34.31,118.31,
06/01/2021,01:10:10.37,536.13,-1371.58,-12.70,20.73,26.71,-3.54,-137.25,-46.35,-3.30,34.31,118.31,
06/01/2021,01:10:10.38,539.06,-1380.37,-1.46,18.84,23.23,-11.16,-138.75,-46.65,-1.20,34.31,118.31,
06/01/2021,01:10:10.39,529.30,-1368.16,4.39,16.65,28.96,-14.94,-138.75,-46.65,-1.20,34.21,118.31,
06/01/2021,01:10:10.40,507.32,-1349.12,-8.79,19.09,30.06,-19.45,-138.75,-46.65,-1.20,34.21,118.31,
06/01/2021,01:10:10.40,498.54,-1310.55,6.84,19.94,35.12,-24.45,-136.65,-45.45,-1.35,34.21,118.31,
06/01/2021,01:10:10.41,483.89,-1269.04,7.32,23.05,36.28,-30.91,-136.65,-45.45,-1.35,34.40,118.31,
06/01/2021,01:10:10.42,462.40,-1172.36,15.14,26.28,39.27,-48.29,-138.60,-45.45,-0.60,34.12,118.31,
06/01/2021,01:10:10.43,453.61,-1144.53,-5.37,27.44,39.57,-54.76,-138.60,-45.45,-0.60,34.21,118.31,
06/01/2021,01:10:10.44,431.64,-1099.61,-3.91,33.54,38.29,-60.37,-137.85,-45.00,-0.60,34.12,118.31,
06/01/2021,01:10:10.44,441.41,-1064.94,-19.53,32.80,36.28,-67.87,-137.85,-43.95,-0.30,34.31,118.31,
06/01/2021,01:10:10.45,443.36,-1032.23,-37.11,38.78,35.18,-72.87,-137.85,-43.95,-0.30,34.12,118.31,
06/01/2021,01:10:10.46,394.04,-956.54,-47.36,40.00,25.12,-92.87,-138.60,-46.20,1.65,34.21,118.31,
06/01/2021,01:10:10.47,408.20,-954.10,-72.27,45.18,15.24,-93.90,-138.60,-46.20,1.65,34.21,118.31,
06/01/2021,01:10:10.47,419.43,-966.80,-109.38,45.18,9.88,-97.44,-138.15,-43.50,1.35,34.50,118.31,
06/01/2021,01:10:10.48,393.07,-985.84,-90.33,44.88,2.56,-102.01,-138.60,-42.45,1.05,34.36,118.31,
06/01/2021,01:10:10.49,378.42,-987.30,-70.31,44.88,-10.61,-105.06,-138.60,-42.45,1.05,34.40,118.32,
06/01/2021,01:10:10.50,373.05,-1036.13,-176.76,39.27,-64.02,-97.80,-139.80,-42.90,2.25,34.21,118.31,
06/01/2021,01:10:10.51,319.34,-1042.97,-158.20,36.22,-83.54,-97.13,-139.80,-42.90,2.25,34.36,118.31,
06/01/2021,01:10:10.51,205.08,-1027.83,-152.83,35.06,-104.33,-94.51,-140.10,-40.80,2.25,34.16,118.31,
06/01/2021,01:10:10.52,151.37,-1047.36,-293.46,26.28,-106.95,-90.00,-140.10,-40.80,2.25,34.16,118.32,
06/01/2021,01:10:10.53,57.13,-1064.94,-287.11,20.18,-93.66,-84.57,-140.10,-40.80,2.25,34.31,118.32,
06/01/2021,01:10:10.54,49.32,-1108.40,-234.86,15.24,-67.26,-75.61,-142.20,-42.75,3.45,34.31,118.31,
06/01/2021,01:10:10.55,92.77,-1153.81,-260.74,11.04,-59.21,-74.70,-142.20,-42.75,3.45,34.36,118.31,
06/01/2021,01:10:10.55,29.30,-1122.56,-209.96,6.83,-40.18,-65.00,-142.20,-42.75,3.45,34.31,118.32,
06/01/2021,01:10:10.56,66.89,-1108.89,-183.59,5.61,-23.96,-62.93,-145.50,-40.80,2.55,34.50,118.32,
06/01/2021,01:10:10.57,109.38,-1110.35,-207.52,2.44,-8.05,-62.01,-145.50,-40.80,2.55,34.40,118.32,
06/01/2021,01:10:10.58,68.85,-1049.80,-164.55,-4.57,53.72,-59.33,-144.00,-42.00,3.75,34.21,118.31,
06/01/2021,01:10:10.59,-46.39,-996.09,-221.19,-9.51,93.41,-55.98,-144.00,-42.00,3.75,34.36,118.32,
06/01/2021,01:10:10.59,52.73,-958.01,-69.82,-10.79,128.96,-51.52,-144.30,-41.25,4.20,34.31,118.32,
06/01/2021,01:10:10.60,169.43,-948.24,-38.57,-11.46,138.72,-53.05,-144.30,-39.45,4.95,34.16,118.32,
06/01/2021,01:10:10.61,258.30,-925.29,-32.23,-10.06,145.49,-55.85,-144.30,-39.45,4.95,34.16,118.32,
06/01/2021,01:10:10.62,295.90,-880.37,28.81,-11.77,121.59,-47.20,-144.30,-41.70,5.55,34.40,118.32,
06/01/2021,01:10:10.63,306.64,-854.49,26.37,-14.70,110.18,-41.40,-144.30,-41.70,5.55,34.12,118.32,
06/01/2021,01:10:10.63,289.55,-830.08,4.88,-16.28,101.04,-39.70,-143.25,-41.25,4.20,34.31,118.32,
06/01/2021,01:10:10.64,269.53,-838.38,1.46,-18.05,95.37,-37.44,-140.55,-41.10,4.05,34.21,118.32,
06/01/2021,01:10:10.65,263.18,-827.64,-12.70,-19.70,87.01,-37.01,-140.55,-41.10,4.05,34.40,118.32,
06/01/2021,01:10:10.66,283.69,-830.08,23.93,-24.51,80.12,-35.06,-142.50,-42.00,4.50,34.36,118.32,
06/01/2021,01:10:10.67,295.41,-819.82,52.25,-22.56,74.02,-29.33,-142.50,-42.00,4.50,34.31,118.32,
06/01/2021,01:10:10.67,317.87,-819.34,62.99,-26.71,64.63,-26.59,-141.00,-41.70,5.25,34.31,118.32,
06/01/2021,01:10:10.68,305.66,-813.48,51.27,-26.40,49.76,-26.22,-141.00,-41.70,5.25,34.21,118.32,
06/01/2021,01:10:10.69,293.46,-825.20,61.52,-26.77,42.87,-21.16,-139.80,-41.85,5.10,34.02,118.32,
06/01/2021,01:10:10.69,269.53,-817.87,50.29,-29.21,29.82,-18.96,-139.20,-43.50,3.15,34.40,118.32,
06/01/2021,01:10:10.71,215.33,-821.29,6.35,-33.84,26.89,-8.78,-140.10,-42.60,3.60,34.02,118.32,
06/01/2021,01:10:10.71,193.85,-831.05,7.32,-37.20,32.93,-2.68,-140.10,-42.60,3.60,34.31,118.32,
06/01/2021,01:10:10.72,197.75,-820.31,-10.74,-40.30,36.59,-2.74,-139.50,-42.60,3.30,34.21,118.32,
06/01/2021,01:10:10.73,189.45,-840.33,0.49,-41.46,42.20,5.24,-139.50,-42.60,3.30,34.31,118.32,
06/01/2021,01:10:10.73,220.21,-844.73,-3.91,-40.91,46.04,8.90,-138.60,-43.50,4.50,34.21,118.32,
06/01/2021,01:10:10.75,229.98,-860.35,26.37,-48.29,58.29,19.82,-138.60,-43.50,4.50,34.40,118.32,
06/01/2021,01:10:10.75,238.77,-852.54,29.79,-48.29,55.37,24.94,-141.45,-44.70,6.00,34.21,118.32,
06/01/2021,01:10:10.76,244.14,-853.52,45.90,-49.39,55.73,29.45,-136.65,-44.25,4.20,34.31,118.32,
06/01/2021,01:10:10.76,259.77,-865.72,44.43,-50.91,58.90,34.02,-136.65,-44.25,4.20,34.50,118.32,
06/01/2021,01:10:10.77,259.77,-858.89,50.78,-54.51,56.59,36.71,-136.65,-44.25,4.20,34.40,118.32,
06/01/2021,01:10:10.79,274.41,-861.82,77.64,-53.84,56.59,48.78,-136.95,-44.40,4.35,34.40,118.32,
06/01/2021,01:10:10.82,274.90,-885.74,86.91,-60.61,52.26,70.00,-136.50,-49.35,2.25,34.21,118.31,
06/01/2021,01:10:10.83,282.71,-923.83,92.77,-60.73,50.73,78.41,-136.20,-48.15,2.25,34.12,118.31,
06/01/2021,01:10:10.84,286.62,-937.01,106.45,-62.20,46.83,83.66,-136.20,-47.85,1.50,34.50,118.31,
06/01/2021,01:10:10.85,281.74,-945.31,115.23,-62.62,48.35,87.44,-136.20,-47.85,1.50,34.21,118.31,
06/01/2021,01:10:10.86,304.69,-1011.72,121.09,-63.17,48.23,97.56,-133.35,-48.15,1.80,34.40,118.31,
06/01/2021,01:10:10.87,320.31,-1033.20,127.93,-64.45,50.00,98.54,-133.35,-48.15,1.80,34.21,118.31,
06/01/2021,01:10:10.87,316.41,-1058.59,143.07,-63.11,48.48,103.78,-134.85,-48.75,0.00,34.31,118.31,
06/01/2021,01:10:10.88,317.38,-1093.26,140.14,-62.93,46.52,107.38,-131.10,-48.90,-0.45,34.21,118.31,
06/01/2021,01:10:10.88,332.03,-1094.73,133.30,-63.48,45.49,108.17,-131.10,-48.90,-0.45,34.36,118.31,
06/01/2021,01:10:10.90,363.28,-1141.11,158.20,-63.66,45.67,112.38,-132.45,-48.75,0.60,34.36,118.31,
06/01/2021,01:10:10.91,385.25,-1152.83,156.25,-62.50,44.33,112.74,-132.45,-48.75,0.60,34.21,118.31,
06/01/2021,01:10:10.91,392.58,-1165.53,148.44,-63.35,43.90,107.38,-129.75,-49.35,-0.15,34.02,118.31,
06/01/2021,01:10:10.92,399.90,-1167.48,155.76,-61.28,40.49,111.59,-128.55,-48.15,0.15,34.12,118.31,
06/01/2021,01:10:10.92,400.88,-1154.30,169.43,-60.37,37.13,105.73,-128.55,-48.15,0.15,34.21,118.31,
06/01/2021,01:10:10.94,405.27,-1228.03,198.24,-53.41,40.85,101.10,-129.45,-49.05,0.00,34.40,118.31,
06/01/2021,01:10:10.95,400.39,-1288.57,214.36,-53.35,41.34,105.24,-129.45,-49.05,0.00,34.21,118.31,
06/01/2021,01:10:10.95,405.27,-1348.14,216.80,-48.60,41.34,101.16,-128.55,-50.10,-1.80,34.31,118.31,
06/01/2021,01:10:10.96,411.62,-1388.67,227.54,-45.55,42.13,100.12,-128.55,-50.10,-1.80,34.36,118.31,
06/01/2021,01:10:10.97,448.73,-1406.74,242.68,-41.71,46.52,96.16,-128.55,-50.10,-1.80,34.21,118.32,
06/01/2021,01:10:10.98,519.04,-1340.33,223.14,-29.33,35.55,89.09,-126.45,-50.40,-1.20,34.21,118.31,
06/01/2021,01:10:10.99,532.23,-1241.70,209.96,-25.24,34.82,83.54,-126.45,-50.40,-1.20,34.50,118.31,
06/01/2021,01:10:10.99,550.29,-1157.71,181.64,-20.55,26.89,79.09,-126.45,-50.40,-1.20,34.36,118.31,
06/01/2021,01:10:11.00,553.71,-1083.98,184.57,-16.83,23.29,72.50,-124.65,-48.90,-3.30,34.21,118.32,
06/01/2021,01:10:11.00,553.71,-1011.23,158.69,-9.15,15.98,69.45,-124.65,-48.90,-3.30,34.50,118.32,
06/01/2021,01:10:11.01,557.13,-959.47,155.27,-4.94,9.57,61.16,-123.30,-48.30,-4.20,34.40,118.32,
06/01/2021,01:10:11.03,548.83,-859.86,130.37,6.59,-5.67,44.39,-121.20,-49.50,-3.75,34.40,118.31,
06/01/2021,01:10:11.03,520.02,-856.45,111.82,12.93,-11.46,39.76,-123.00,-50.55,0.30,34.21,118.32,
06/01/2021,01:10:11.04,496.09,-846.19,83.50,19.39,-16.22,32.74,-121.50,-47.70,-3.15,34.31,118.32,
06/01/2021,01:10:11.04,497.56,-858.40,90.82,20.91,-15.67,27.07,-121.50,-47.70,-3.15,34.31,118.32,
06/01/2021,01:10:11.05,498.54,-885.25,90.33,25.61,-19.39,21.22,-119.70,-48.00,-2.10,34.21,118.32,
06/01/2021,01:10:11.07,486.82,-889.65,65.92,31.83,-23.78,9.94,-121.80,-47.85,-3.60,34.40,118.32,
06/01/2021,01:10:11.07,489.26,-916.99,57.62,33.23,-27.32,5.85,-122.85,-50.10,-1.20,34.40,118.32,
06/01/2021,01:10:11.08,489.75,-942.87,44.92,34.94,-26.22,2.50,-120.60,-47.10,-1.50,34.31,118.32,
06/01/2021,01:10:11.08,473.63,-937.50,38.57,37.32,-32.01,-1.28,-120.60,-47.10,-1.50,34.40,118.32,
06/01/2021,01:10:11.09,478.03,-952.15,21.48,41.22,-30.00,-5.06,-120.60,-47.10,-1.50,34.31,118.32,
06/01/2021,01:10:11.11,452.64,-982.42,-4.39,40.06,-26.10,-15.18,-120.15,-49.50,0.00,34.16,118.32,
06/01/2021,01:10:11.11,444.34,-985.84,-18.55,41.10,-24.76,-18.78,-121.35,-49.35,1.80,34.31,118.32,
06/01/2021,01:10:11.12,438.48,-990.72,-19.04,42.38,-20.73,-21.83,-121.35,-49.35,1.80,34.40,118.32,
06/01/2021,01:10:11.12,413.57,-1007.32,-31.25,43.29,-16.46,-27.80,-121.35,-49.35,1.80,34.12,118.32,
06/01/2021,01:10:11.13,413.57,-1027.34,-33.20,45.00,-12.07,-30.12,-120.30,-45.90,-0.45,34.40,118.32,
06/01/2021,01:10:11.14,406.25,-1028.32,-62.01,49.45,-6.95,-46.22,-119.55,-48.60,-0.45,34.31,118.32,
06/01/2021,01:10:11.15,401.86,-1015.14,-60.55,51.46,0.18,-48.96,-119.55,-48.60,-0.45,34.21,118.32,
06/01/2021,01:10:11.16,416.02,-1020.02,-80.08,52.99,1.34,-54.57,-120.60,-47.10,0.75,34.31,118.32,
06/01/2021,01:10:11.16,421.88,-1032.23,-83.98,52.50,5.00,-59.94,-120.60,-47.10,0.75,34.36,118.32,
06/01/2021,01:10:11.17,426.27,-1015.14,-93.26,55.98,1.46,-65.73,-120.15,-45.00,1.05,34.40,118.32,
06/01/2021,01:10:11.18,449.71,-1037.60,-113.77,59.21,-5.18,-74.51,-120.15,-45.00,1.05,34.21,118.32,
06/01/2021,01:10:11.19,451.17,-1035.16,-142.09,60.00,-11.95,-75.24,-122.70,-47.25,1.35,34.21,118.32,
06/01/2021,01:10:11.20,416.99,-1048.34,-164.06,57.07,-25.79,-78.11,-119.70,-48.00,0.30,34.36,118.32,
06/01/2021,01:10:11.20,391.60,-1086.91,-317.38,49.70,-38.11,-79.63,-119.70,-48.00,0.30,34.12,118.32,
06/01/2021,01:10:11.21,323.24,-1113.28,-401.37,45.79,-59.27,-75.18,-120.45,-46.50,2.10,34.02,118.32,
06/01/2021,01:10:11.22,14.65,-1176.76,-943.85,20.91,-79.09,-55.67,-118.80,-45.90,0.45,34.16,118.32,
06/01/2021,01:10:11.23,-120.61,-1161.13,-1132.81,5.79,-76.34,-48.48,-123.30,-48.75,2.40,34.31,118.32,
06/01/2021,01:10:11.24,-132.32,-1185.06,-1099.12,-7.50,-73.35,-52.13,-121.05,-45.60,1.50,34.40,118.32,
06/01/2021,01:10:11.24,-218.26,-1098.63,-985.84,-16.34,-74.57,-54.02,-121.05,-45.60,1.50,34.31,118.32,
06/01/2021,01:10:11.25,-267.09,-982.91,-880.86,-18.17,-60.12,-48.78,-121.05,-45.60,1.50,34.21,118.32,
06/01/2021,01:10:11.26,-57.62,-816.89,-610.84,-22.44,-10.18,-27.62,-122.85,-46.65,1.20,34.36,118.32,
06/01/2021,01:10:11.27,-0.98,-774.90,-569.34,-24.39,7.99,-26.04,-124.20,-48.60,4.35,34.36,118.32,
06/01/2021,01:10:11.28,49.80,-770.02,-479.00,-23.78,22.87,-21.65,-124.20,-48.60,4.35,34.31,118.32,
06/01/2021,01:10:11.28,126.46,-825.20,-408.69,-24.51,48.17,-21.22,-124.20,-48.60,4.35,34.36,118.32,
06/01/2021,01:10:11.29,177.73,-870.61,-333.98,-22.13,63.48,-20.55,-122.40,-47.85,1.20,34.40,118.32,
06/01/2021,01:10:11.33,359.86,-876.46,102.05,-20.91,57.87,-9.45,-123.15,-47.10,0.75,34.21,118.31,
06/01/2021,01:10:11.35,335.45,-862.79,140.62,-24.02,39.33,-2.38,-122.40,-47.85,1.50,34.36,118.31,
06/01/2021,01:10:11.35,327.64,-859.38,153.81,-23.05,33.84,1.65,-122.40,-47.85,1.50,34.12,118.31,
06/01/2021,01:10:11.36,338.87,-857.91,169.43,-21.59,25.85,5.67,-120.45,-46.95,-1.35,34.21,118.31,
06/01/2021,01:10:11.36,360.35,-839.84,169.92,-21.52,20.61,9.15,-120.45,-46.95,-1.35,34.50,118.31,
06/01/2021,01:10:11.38,396.97,-802.73,154.30,-20.61,-6.40,18.48,-121.50,-48.00,0.60,34.36,118.31,
06/01/2021,01:10:11.38,419.43,-793.95,139.65,-19.57,-21.52,21.34,-121.50,-46.95,-0.30,34.21,118.31,
06/01/2021,01:10:11.39,412.11,-795.41,114.75,-18.90,-29.21,26.16,-121.50,-46.95,-0.30,34.40,118.31,
06/01/2021,01:10:11.40,413.57,-801.27,89.36,-19.82,-39.21,30.24,-120.90,-46.20,-2.40,34.36,118.31,
06/01/2021,01:10:11.40,407.23,-812.01,54.69,-18.35,-47.38,33.96,-120.90,-46.20,-2.40,34.21,118.31,
06/01/2021,01:10:11.41,377.44,-806.64,48.34,-16.22,-50.37,38.23,-121.05,-47.85,-1.80,34.36,118.32,
06/01/2021,01:10:11.43,384.77,-800.78,5.37,-10.24,-52.26,46.77,-121.80,-46.35,0.15,34.21,118.31,
06/01/2021,01:10:11.43,399.90,-817.38,-2.93,-9.09,-55.49,47.01,-121.80,-46.35,0.15,34.40,118.31,
06/01/2021,01:10:11.44,384.28,-811.52,0.49,-7.87,-57.62,48.17,-121.80,-46.35,0.15,34.64,118.31,
06/01/2021,01:10:11.44,418.46,-841.80,-4.88,-5.91,-59.57,49.33,-121.80,-46.35,0.15,34.36,118.32,
06/01/2021,01:10:11.45,430.66,-835.45,0.49,-4.82,-65.67,50.61,-120.15,-45.45,-1.65,34.40,118.32,
06/01/2021,01:10:11.47,463.38,-878.42,9.28,-1.16,-73.84,50.67,-119.40,-46.20,-1.65,34.21,118.31,
06/01/2021,01:10:11.47,450.68,-890.62,13.67,-1.28,-76.71,50.91,-119.40,-46.20,-1.65,34.40,118.31,
06/01/2021,01:10:11.48,471.68,-929.69,29.30,1.40,-81.71,51.83,-121.35,-46.35,-1.20,34.31,118.32,
06/01/2021,01:10:11.48,476.07,-948.73,24.41,0.24,-84.94,51.16,-121.35,-46.35,-1.20,34.36,118.32,
06/01/2021,01:10:11.49,495.61,-982.91,25.88,0.67,-87.99,49.88,-122.25,-45.45,-1.65,34.31,118.32,
06/01/2021,01:10:11.50,509.77,-1072.27,39.06,2.68,-99.15,48.41,-123.60,-46.65,-0.15,34.40,118.32,
06/01/2021,01:10:11.51,536.62,-1085.94,37.11,1.22,-98.84,42.44,-123.60,-46.65,-0.15,34.50,118.32,
06/01/2021,01:10:11.52,540.53,-1099.12,45.41,3.35,-101.95,42.56,-123.60,-44.10,-1.50,34.21,118.32,
06/01/2021,01:10:11.52,542.48,-1128.91,42.48,3.11,-103.48,38.90,-123.60,-44.10,-1.50,34.31,118.32,
06/01/2021,01:10:11.53,541.99,-1139.65,49.32,5.06,-99.94,32.68,-123.60,-44.10,-1.50,34.36,118.32,
06/01/2021,01:10:11.54,562.99,-1210.45,47.85,10.43,-100.00,20.37,-125.40,-47.40,1.80,34.31,118.32,
06/01/2021,01:10:11.55,569.82,-1264.16,41.99,11.46,-97.74,15.73,-125.40,-47.40,1.80,34.31,118.32,
06/01/2021,01:10:11.56,600.10,-1337.40,33.69,14.94,-96.10,10.49,-124.20,-43.35,-0.75,34.16,118.32,
06/01/2021,01:10:11.56,605.47,-1415.53,25.88,14.76,-92.56,3.41,-124.20,-43.35,-0.75,34.02,118.32,
06/01/2021,01:10:11.57,629.39,-1458.98,15.62,16.10,-95.73,-3.41,-126.75,-44.85,-1.50,34.21,118.32,
06/01/2021,01:10:11.58,635.25,-1439.94,22.46,16.16,-93.66,-20.67,-128.25,-44.40,-37.65,34.16,118.32,
06/01/2021,01:10:11.59,636.23,-1406.25,23.44,18.11,-93.05,-29.51,-128.25,-44.40,0.75,34.31,118.32,
06/01/2021,01:10:11.59,617.68,-1370.61,28.32,20.67,-89.76,-39.45,-127.20,-43.35,-0.75,34.16,118.32,
06/01/2021,01:10:11.60,580.08,-1347.66,16.60,20.06,-88.60,-43.84,-127.20,-43.35,-0.75,34.21,118.32,
06/01/2021,01:10:11.61,567.87,-1325.20,20.02,24.21,-87.87,-53.66,-128.10,-44.25,-1.05,34.40,118.32,
06/01/2021,01:10:11.62,532.23,-1219.73,4.88,23.35,-91.28,-68.66,-128.25,-44.85,-1.20,34.21,118.32,
06/01/2021,01:10:11.63,522.95,-1167.48,8.79,26.16,-87.44,-74.09,-128.25,-44.85,-1.20,34.12,118.32,
06/01/2021,01:10:11.63,507.32,-1126.95,4.88,24.27,-91.16,-80.73,-130.05,-45.15,-0.45,34.36,118.32,
06/01/2021,01:10:11.64,501.95,-1089.84,1.46,25.49,-91.46,-85.12,-130.05,-45.15,-0.45,34.21,118.32,
06/01/2021,01:10:11.65,458.01,-1058.11,0.49,26.89,-90.98,-94.70,-130.05,-44.10,-0.75,34.50,118.32,
06/01/2021,01:10:11.65,475.10,-1030.27,6.35,27.13,-94.27,-96.65,-130.05,-44.10,-0.75,34.36,118.32,
06/01/2021,01:10:11.67,419.92,-994.63,-6.84,30.43,-98.54,-103.60,-133.50,-45.00,-0.60,34.12,118.32,
06/01/2021,01:10:11.67,417.97,-1000.00,-7.32,30.18,-98.84,-103.96,-133.95,-44.40,-0.15,34.21,118.32,
06/01/2021,01:10:11.68,410.64,-1001.46,-9.77,29.57,-99.51,-103.90,-133.95,-44.40,-0.15,34.21,118.32,
06/01/2021,01:10:11.69,404.79,-1010.74,-6.35,28.29,-105.06,-106.65,-133.95,-44.40,-0.15,34.40,118.32,
06/01/2021,01:10:11.69,414.06,-987.79,-1.95,26.71,-104.82,-106.22,-133.95,-44.40,-0.15,34.31,118.32,
06/01/2021,01:10:11.71,372.56,-979.00,4.88,22.20,-109.39,-104.57,-137.55,-44.40,0.45,34.31,118.32,
06/01/2021,01:10:11.71,354.49,-997.07,-3.42,20.00,-114.88,-101.59,-137.55,-44.40,0.45,34.21,118.32,
06/01/2021,01:10:11.72,366.70,-1001.46,-1.46,17.44,-109.27,-100.43,-137.55,-44.40,0.45,34.21,118.32,
06/01/2021,01:10:11.73,356.93,-1013.67,20.51,13.96,-107.74,-97.44,-138.00,-45.15,-1.80,34.31,118.32,
06/01/2021,01:10:11.73,340.82,-1003.42,19.04,13.41,-106.40,-97.68,-138.00,-45.15,-1.80,34.21,118.32,
06/01/2021,01:10:11.75,328.61,-1024.41,43.46,6.89,-103.23,-91.59,-140.10,-45.15,-0.15,34.64,118.32,
06/01/2021,01:10:11.75,326.17,-1017.09,58.11,5.12,-103.11,-88.48,-141.30,-47.40,-0.45,34.40,118.32,
06/01/2021,01:10:11.76,332.52,-1022.46,55.66,2.80,-100.67,-87.50,-141.30,-47.40,-0.45,34.31,118.32,
06/01/2021,01:10:11.77,310.55,-1030.76,76.66,1.95,-99.39,-85.73,-140.40,-45.75,-1.65,34.55,118.32,
06/01/2021,01:10:11.77,323.24,-1035.16,64.94,-2.32,-101.16,-84.15,-142.35,-47.40,-1.50,34.31,118.32,
06/01/2021,01:10:11.79,304.20,-1030.76,102.54,-3.96,-95.85,-83.23,-142.35,-48.15,-0.15,34.16,118.32,
06/01/2021,01:10:11.79,294.92,-1021.97,99.61,-4.33,-95.61,-79.02,-144.90,-46.35,-0.45,34.31,118.32,
06/01/2021,01:10:11.80,303.71,-1018.55,102.54,-5.79,-94.82,-75.98,-144.90,-46.35,-0.45,34.31,118.32,
06/01/2021,01:10:11.81,308.59,-1016.11,96.19,-4.45,-91.34,-75.73,-142.65,-45.90,-1.20,34.21,118.32,
06/01/2021,01:10:11.84,291.02,-979.00,123.05,-5.49,-78.66,-74.70,-146.85,-48.75,1.35,34.21,118.32,
06/01/2021,01:10:11.86,260.74,-946.29,132.32,-5.55,-59.09,-78.84,-147.90,-48.75,0.00,34.36,118.31,
06/01/2021,01:10:11.87,251.95,-937.99,135.74,-4.09,-55.24,-80.67,-147.90,-48.75,0.00,34.12,118.31,
06/01/2021,01:10:11.87,255.37,-929.20,126.95,-3.90,-51.77,-81.89,-147.90,-48.75,0.00,34.16,118.31,
06/01/2021,01:10:11.88,267.58,-940.92,139.65,-2.20,-50.91,-81.95,-147.90,-48.75,0.00,34.21,118.31,
06/01/2021,01:10:11.89,258.79,-950.20,136.23,0.37,-46.77,-83.48,-146.85,-49.05,-0.30,34.31,118.32,
06/01/2021,01:10:11.90,253.91,-928.71,144.53,1.40,-41.59,-83.54,-148.95,-48.00,0.60,34.12,118.31,
06/01/2021,01:10:11.91,238.28,-926.27,158.69,1.89,-34.57,-84.45,-148.95,-48.00,0.60,34.12,118.31,
06/01/2021,01:10:11.91,265.14,-931.15,149.41,3.17,-33.96,-85.24,-150.45,-49.05,-1.35,34.31,118.32,
06/01/2021,01:10:11.92,242.19,-933.59,157.71,8.41,-31.65,-83.60,-150.45,-49.05,-1.35,34.31,118.32,
06/01/2021,01:10:11.93,240.72,-913.09,166.02,7.68,-31.83,-84.63,-151.65,-48.90,1.50,34.36,118.32,
06/01/2021,01:10:11.94,235.84,-913.57,158.69,11.83,-28.11,-80.43,-154.95,-50.10,3.60,34.02,118.31,
06/01/2021,01:10:11.95,236.82,-893.55,159.18,13.90,-24.39,-85.61,-154.95,-50.10,3.60,34.21,118.32,
06/01/2021,01:10:11.95,222.66,-903.32,152.34,15.43,-19.76,-78.54,-154.20,-49.65,0.75,34.16,118.32,
06/01/2021,01:10:11.96,243.65,-891.11,146.48,16.28,-18.66,-79.63,-154.20,-49.65,0.75,33.97,118.32,
06/01/2021,01:10:11.97,222.66,-895.51,143.07,16.16,-18.54,-79.27,-154.95,-49.35,1.50,34.31,118.32,
06/01/2021,01:10:11.98,207.52,-869.63,135.74,22.01,-12.93,-73.78,-156.60,-49.80,3.75,34.36,118.32,
06/01/2021,01:10:11.99,199.22,-870.12,137.21,21.65,-7.50,-72.50,-156.60,-49.80,3.75,34.31,118.32,
06/01/2021,01:10:11.99,206.05,-891.11,132.32,21.71,-7.44,-69.27,-157.05,-48.60,2.25,34.40,118.32,
06/01/2021,01:10:12.00,214.36,-890.14,125.49,23.90,-6.04,-68.60,-157.05,-48.60,2.25,34.21,118.32,
06/01/2021,01:10:12.01,200.68,-876.46,130.37,24.39,-3.60,-65.37,-157.05,-48.60,2.25,34.21,118.32,
06/01/2021,01:10:12.02,208.50,-898.93,112.30,28.60,8.17,-57.93,-158.55,-47.40,4.65,34.36,118.32,
06/01/2021,01:10:12.03,202.15,-890.62,112.79,29.57,10.24,-53.78,-158.55,-47.40,4.65,34.12,118.32,
06/01/2021,01:10:12.03,208.98,-907.71,107.91,32.13,9.88,-48.17,-158.55,-47.40,4.65,34.36,118.32,
06/01/2021,01:10:12.04,212.89,-927.73,109.38,32.32,11.83,-45.55,-158.55,-47.40,4.65,34.31,118.32,
06/01/2021,01:10:12.05,194.34,-933.59,94.73,33.54,11.59,-37.50,-157.05,-44.40,5.10,34.36,118.32,
06/01/2021,01:10:12.06,230.96,-952.15,70.31,35.24,13.60,-25.18,-159.15,-43.95,6.30,34.40,118.32,
06/01/2021,01:10:12.07,233.89,-951.66,70.80,34.09,12.62,-20.79,-159.15,-43.95,6.30,34.21,118.32,
06/01/2021,01:10:12.07,237.30,-951.17,71.78,34.02,12.38,-13.72,-159.75,-42.00,5.25,34.40,118.32,
06/01/2021,01:10:12.08,254.39,-958.50,42.48,36.77,12.74,-6.95,-159.75,-42.00,5.25,34.40,118.32,
06/01/2021,01:10:12.08,253.91,-966.31,43.46,35.30,9.51,-3.35,-158.55,-41.85,4.65,34.21,118.32,
06/01/2021,01:10:12.09,274.41,-964.36,29.30,36.16,11.28,5.61,-158.55,-41.85,4.65,34.31,118.32,
06/01/2021,01:10:12.11,243.65,-1053.22,30.76,37.38,9.21,24.57,-157.50,-41.85,6.15,34.36,118.32,
06/01/2021,01:10:12.11,262.21,-1102.54,30.27,35.91,9.82,32.93,-159.75,-40.20,7.05,34.31,118.32,
06/01/2021,01:10:12.12,249.51,-1138.67,20.02,37.32,11.28,43.96,-159.75,-40.20,7.05,34.40,118.32,
06/01/2021,01:10:12.12,267.09,-1172.85,23.44,35.79,12.99,50.67,-157.80,-39.60,5.10,34.31,118.32,
06/01/2021,01:10:12.13,290.53,-1199.71,8.79,38.23,14.02,61.65,-158.25,-38.55,5.40,34.16,118.32,
06/01/2021,01:10:12.15,330.08,-1126.95,-33.69,38.17,11.65,79.82,-157.50,-40.80,7.50,34.12,118.32,
06/01/2021,01:10:12.15,326.66,-1070.31,-63.48,40.61,9.88,85.30,-157.05,-40.05,6.90,34.12,118.32,
06/01/2021,01:10:12.16,340.82,-1025.88,-102.54,39.02,5.67,92.13,-157.05,-40.05,6.90,34.36,118.32,
06/01/2021,01:10:12.16,347.66,-978.03,-139.65,42.01,3.66,97.07,-156.00,-38.55,4.35,34.36,118.32,
06/01/2021,01:10:12.17,372.07,-942.38,-159.18,44.51,-0.43,101.04,-156.00,-39.30,5.10,34.40,118.32,
06/01/2021,01:10:12.19,412.60,-891.11,-252.93,46.71,-14.57,110.37,-156.60,-40.20,6.60,34.21,118.32,
06/01/2021,01:10:12.19,445.31,-862.30,-267.09,46.52,-24.27,112.74,-156.60,-40.20,6.60,34.31,118.32,
06/01/2021,01:10:12.20,459.96,-845.70,-303.71,46.04,-32.38,117.99,-156.60,-40.20,6.60,34.31,118.32,
06/01/2021,01:10:12.20,461.91,-836.43,-329.10,45.55,-43.05,121.40,-154.65,-37.80,5.40,34.40,118.32,
06/01/2021,01:10:12.21,493.65,-825.20,-347.17,43.72,-46.34,121.71,-155.55,-37.95,5.55,34.31,118.32,
06/01/2021,01:10:12.22,509.28,-843.26,-415.53,43.35,-73.29,128.54,-155.55,-37.95,5.55,34.31,118.32,
06/01/2021,01:10:12.23,516.60,-854.98,-412.60,39.63,-77.68,127.99,-156.60,-40.20,6.60,34.31,118.32,
06/01/2021,01:10:12.24,495.12,-899.41,-435.06,38.90,-81.95,125.67,-156.60,-40.20,6.60,34.21,118.32,
06/01/2021,01:10:12.24,496.58,-923.83,-458.50,37.44,-85.49,126.89,-156.45,-38.55,5.10,34.02,118.32,
06/01/2021,01:10:12.25,490.23,-961.43,-449.71,32.99,-91.83,127.01,-156.45,-38.55,5.10,34.21,118.32,
06/01/2021,01:10:12.26,450.20,-993.65,-465.33,27.01,-89.70,119.88,-156.00,-39.60,5.40,34.02,118.32,
06/01/2021,01:10:12.27,425.78,-1021.97,-479.00,23.54,-86.52,119.21,-157.50,-38.55,4.35,34.21,118.32,
06/01/2021,01:10:12.28,399.90,-1039.55,-497.07,22.74,-76.77,115.91,-157.50,-38.55,4.35,34.40,118.32,
06/01/2021,01:10:12.28,387.70,-1071.29,-502.93,17.32,-67.99,112.74,-157.50,-38.55,4.35,34.31,118.32,
06/01/2021,01:10:12.29,360.35,-1097.17,-521.00,15.55,-58.90,108.72,-156.90,-38.25,3.45,34.31,118.32,
06/01/2021,01:10:12.30,359.38,-1154.30,-543.95,7.07,-22.74,96.52,-154.65,-41.10,4.05,34.50,118.32,
06/01/2021,01:10:12.31,353.03,-1174.80,-527.83,4.39,-7.87,93.96,-157.95,-41.25,3.15,34.50,118.32,
06/01/2021,01:10:12.32,344.73,-1166.50,-516.11,0.85,8.17,87.87,-157.95,-41.25,3.15,34.21,118.32,
06/01/2021,01:10:12.37,648.44,-980.96,-366.21,-30.30,120.18,22.68,-154.05,-42.00,6.00,34.50,118.31,
06/01/2021,01:10:12.38,603.03,-893.07,-312.99,-32.87,105.06,23.11,-154.05,-42.00,6.00,34.31,118.31,
06/01/2021,01:10:12.40,464.84,-880.86,-274.41,-32.38,92.07,22.44,-153.00,-42.45,5.25,34.21,118.31,
06/01/2021,01:10:12.40,435.06,-886.23,-262.70,-35.12,90.55,16.34,-153.00,-42.45,5.25,34.40,118.31,
06/01/2021,01:10:12.41,451.66,-885.25,-223.14,-36.28,90.00,13.72,-153.00,-42.45,5.25,34.02,118.31,
06/01/2021,01:10:12.42,479.49,-866.21,-162.11,-34.09,87.07,10.24,-153.00,-42.45,5.25,34.12,118.31,
06/01/2021,01:10:12.42,484.86,-841.31,-102.05,-34.27,78.29,4.82,-151.05,-39.60,1.50,34.21,118.31,
06/01/2021,01:10:12.43,493.65,-835.45,-80.57,-34.21,66.71,9.70,-149.70,-40.50,4.20,34.12,118.31,
06/01/2021,01:10:12.44,458.98,-831.54,-20.02,-30.18,37.87,15.43,-149.70,-40.50,4.20,34.31,118.31,
06/01/2021,01:10:12.45,436.52,-839.84,-18.07,-30.00,30.49,13.60,-151.05,-42.60,6.90,34.36,118.31,
06/01/2021,01:10:12.46,436.04,-849.12,-11.72,-30.61,23.54,16.83,-151.05,-42.60,6.90,34.31,118.31,
06/01/2021,01:10:12.46,418.95,-841.80,-14.16,-28.78,18.17,19.02,-148.65,-41.70,4.95,34.31,118.31,
06/01/2021,01:10:12.47,412.60,-849.61,-20.51,-27.56,14.21,22.01,-149.40,-41.70,2.70,34.31,118.31,
06/01/2021,01:10:12.48,393.55,-858.40,-6.35,-26.59,5.49,24.88,-148.95,-43.50,3.15,34.02,118.31,
06/01/2021,01:10:12.49,396.97,-855.96,6.35,-23.66,5.85,26.52,-149.85,-42.90,5.10,34.31,118.31,
06/01/2021,01:10:12.50,404.79,-853.52,10.74,-23.29,1.46,27.99,-149.85,-42.90,5.10,34.40,118.31,
06/01/2021,01:10:12.50,402.34,-855.47,11.23,-20.91,-1.16,31.34,-148.65,-42.75,3.45,34.21,118.31,
06/01/2021,01:10:12.51,409.18,-857.91,6.35,-20.98,-6.28,31.71,-148.80,-43.65,2.55,34.31,118.31,
06/01/2021,01:10:12.52,403.32,-867.68,-8.79,-17.74,-3.60,34.88,-149.10,-43.65,5.10,34.40,118.31,
06/01/2021,01:10:12.53,424.80,-868.16,-6.35,-15.61,-5.55,37.56,-148.95,-44.25,5.25,34.31,118.31,
06/01/2021,01:10:12.53,430.18,-859.38,-2.44,-15.49,-4.88,38.60,-148.95,-44.25,5.25,34.40,118.31,
06/01/2021,01:10:12.54,446.78,-855.96,-9.28,-12.68,-6.71,39.82,-148.95,-44.25,5.25,33.97,118.31,
06/01/2021,01:10:12.55,456.05,-867.68,-6.35,-9.88,-10.00,42.38,-149.85,-42.15,2.25,34.21,118.31,
06/01/2021,01:10:12.56,461.43,-831.54,6.35,-4.70,-16.89,38.96,-149.70,-44.70,3.15,34.31,118.31,
06/01/2021,01:10:12.57,468.26,-848.63,5.86,-2.38,-21.16,37.74,-149.70,-44.70,3.15,34.36,118.31,
06/01/2021,01:10:12.57,469.24,-834.47,19.53,-2.44,-25.73,37.32,-149.70,-44.70,3.15,34.21,118.31,
06/01/2021,01:10:12.58,481.45,-840.33,13.18,1.52,-24.63,39.57,-148.50,-42.60,3.00,34.40,118.32,
06/01/2021,01:10:12.59,487.79,-853.03,12.70,1.95,-29.94,35.55,-148.50,-42.60,3.00,34.31,118.32,
06/01/2021,01:10:12.59,494.63,-854.00,4.88,4.51,-34.94,33.05,-149.40,-42.45,2.40,34.31,118.32,
06/01/2021,01:10:12.61,493.65,-879.88,-9.28,10.06,-38.48,26.71,-151.20,-44.70,5.25,34.50,118.31,
06/01/2021,01:10:12.61,494.63,-886.72,-13.18,12.99,-35.24,23.11,-151.20,-44.70,5.25,34.36,118.32,
06/01/2021,01:10:12.62,487.79,-910.16,-2.44,13.23,-42.13,19.82,-151.35,-42.90,3.30,34.50,118.32,
06/01/2021,01:10:12.63,496.09,-905.27,-10.74,17.20,-40.85,17.80,-151.35,-42.90,3.30,34.21,118.32,
06/01/2021,01:10:12.63,493.16,-918.95,-31.74,18.29,-43.35,12.68,-151.35,-42.90,3.30,34.12,118.32,
06/01/2021,01:10:12.65,509.77,-950.68,-35.16,22.99,-42.26,7.44,-150.45,-42.00,2.40,34.12,118.32,
06/01/2021,01:10:12.65,513.18,-958.50,-48.83,24.21,-40.12,2.38,-150.45,-42.00,2.40,34.31,118.32,
06/01/2021,01:10:12.66,504.39,-945.31,-58.11,26.04,-39.70,-2.13,-152.10,-41.10,1.20,34.21,118.32,
06/01/2021,01:10:12.66,510.74,-965.33,-53.22,29.27,-39.15,-1.95,-152.10,-41.10,1.20,34.12,118.32,
06/01/2021,01:10:12.67,516.11,-956.05,-44.43,31.04,-39.82,-6.04,-151.20,-41.70,1.65,34.31,118.32,
06/01/2021,01:10:12.69,521.97,-954.10,-78.12,32.32,-38.29,-15.73,-153.75,-40.95,2.70,34.02,118.32,
06/01/2021,01:10:12.69,511.72,-970.70,-73.24,34.02,-38.54,-19.33,-153.75,-40.95,2.70,34.31,118.32,
06/01/2021,01:10:12.70,499.51,-972.17,-81.54,36.22,-35.73,-20.98,-152.25,-39.75,1.35,34.21,118.32,
06/01/2021,01:10:12.70,499.02,-1022.46,-87.40,37.62,-35.30,-21.59,-152.25,-39.75,1.35,34.40,118.32,
06/01/2021,01:10:12.71,498.05,-1084.96,-87.89,40.18,-35.98,-24.15,-152.40,-38.55,3.00,34.31,118.32,
06/01/2021,01:10:12.73,572.27,-1319.34,-128.42,36.10,-29.82,-25.18,-152.25,-39.00,1.05,34.50,118.32,
06/01/2021,01:10:12.73,585.94,-1388.67,-116.70,35.49,-33.72,-26.77,-152.25,-39.00,1.05,34.21,118.32,
06/01/2021,01:10:12.74,611.82,-1435.06,-126.95,32.32,-34.15,-28.54,-154.05,-38.70,1.05,34.21,118.32,
06/01/2021,01:10:12.74,621.58,-1421.39,-105.96,29.27,-37.20,-27.99,-154.05,-38.70,1.05,34.02,118.32,
06/01/2021,01:10:12.75,615.23,-1389.65,-89.84,26.22,-35.24,-33.23,-153.30,-36.00,1.05,34.02,118.32,
06/01/2021,01:10:12.77,572.27,-1217.77,-74.22,25.00,-34.94,-41.95,-155.25,-37.05,1.50,34.12,118.32,
06/01/2021,01:10:12.77,574.22,-1185.06,-81.05,25.67,-32.50,-49.27,-155.25,-37.05,1.50,34.12,118.32,
06/01/2021,01:10:12.78,549.32,-1154.79,-86.43,27.26,-33.66,-54.02,-155.55,-35.40,-1.35,34.12,118.32,
06/01/2021,01:10:12.78,547.36,-1138.67,-89.84,27.87,-31.40,-60.24,-155.55,-35.40,-1.35,34.31,118.32,
06/01/2021,01:10:12.79,533.69,-1141.60,-97.66,26.40,-30.37,-68.35,-155.55,-35.40,-1.35,34.31,118.32,
06/01/2021,01:10:12.81,469.73,-1094.24,-88.38,26.16,-32.44,-84.21,-156.45,-34.05,0.75,34.36,118.32,
06/01/2021,01:10:12.81,476.56,-1088.87,-80.57,30.85,-34.09,-91.16,-156.45,-34.05,0.75,34.16,118.32,
06/01/2021,01:10:12.82,448.73,-1100.10,-79.59,32.20,-30.06,-96.95,-156.45,-34.05,0.75,34.50,118.32,
06/01/2021,01:10:12.82,447.75,-1114.75,-86.43,30.85,-31.34,-101.65,-156.45,-34.05,0.75,34.36,118.32,
06/01/2021,01:10:12.86,407.23,-1155.76,-49.32,30.55,-28.96,-117.01,-157.05,-28.80,-5.70,34.21,118.31,
06/01/2021,01:10:12.88,381.35,-1126.95,-64.45,29.57,-32.01,-118.90,-156.15,-28.95,-4.95,34.36,118.31,
06/01/2021,01:10:12.89,382.81,-1124.51,-62.01,29.02,-33.72,-118.29,-156.75,-28.80,-5.40,34.36,118.31,
06/01/2021,01:10:12.89,366.21,-1126.46,-60.06,27.87,-35.98,-117.62,-153.45,-26.55,-9.30,34.02,118.31,
06/01/2021,01:10:12.90,354.00,-1096.68,-56.15,26.46,-33.11,-115.73,-153.45,-26.55,-9.30,34.02,118.31,
06/01/2021,01:10:12.91,365.72,-1101.56,-47.36,28.05,-35.43,-113.35,-153.45,-27.75,-10.35,34.40,118.31,
06/01/2021,01:10:12.92,334.96,-1066.41,-37.11,26.10,-34.57,-112.38,-153.45,-27.75,-10.35,34.50,118.31,
06/01/2021,01:10:12.93,330.57,-1072.75,-32.23,27.26,-36.77,-110.61,-153.45,-29.55,-7.20,34.40,118.31,
06/01/2021,01:10:12.93,313.48,-1053.71,-20.02,27.32,-37.26,-107.99,-150.60,-25.80,-11.85,34.12,118.31,
06/01/2021,01:10:12.94,309.08,-1028.32,-20.02,25.61,-39.51,-107.13,-150.60,-25.80,-11.85,34.16,118.31,
06/01/2021,01:10:12.95,330.57,-1013.67,-19.53,26.95,-38.11,-106.59,-150.60,-25.80,-11.85,34.36,118.31,
06/01/2021,01:10:12.96,302.25,-973.63,-20.02,26.52,-45.91,-101.77,-148.05,-27.30,-10.65,34.21,118.31,
06/01/2021,01:10:12.97,310.55,-970.70,-25.88,27.38,-45.43,-97.99,-151.35,-29.85,-9.30,34.02,118.31,
06/01/2021,01:10:12.97,303.71,-942.38,-27.83,26.16,-47.68,-94.45,-151.35,-29.85,-9.30,34.31,118.31,
06/01/2021,01:10:12.98,293.95,-932.13,-17.09,28.29,-49.88,-94.51,-151.35,-29.85,-9.30,34.16,118.31,
06/01/2021,01:10:12.99,289.55,-905.76,-12.21,24.63,-53.35,-90.98,-149.40,-28.65,-10.95,34.21,118.31,
06/01/2021,01:10:13.00,269.53,-885.25,-29.30,25.37,-50.06,-83.84,-148.65,-28.20,-9.45,34.40,118.31,
06/01/2021,01:10:13.01,256.84,-877.93,-44.92,23.23,-48.05,-85.00,-148.65,-28.20,-9.45,34.21,118.31,
06/01/2021,01:10:13.01,266.11,-869.14,-31.74,22.99,-50.00,-79.88,-149.70,-29.40,-8.70,34.40,118.31,
06/01/2021,01:10:13.02,246.58,-863.28,-25.39,22.13,-47.44,-78.54,-149.70,-29.40,-8.70,34.31,118.31,
06/01/2021,01:10:13.03,247.56,-853.52,-52.25,20.24,-49.76,-77.07,-150.30,-29.25,-8.25,34.50,118.31,
06/01/2021,01:10:13.04,246.09,-843.75,-38.09,17.01,-43.41,-71.77,-150.75,-29.70,-8.70,34.21,118.31,
06/01/2021,01:10:13.05,246.09,-844.24,-38.09,14.33,-41.71,-69.63,-152.85,-29.85,-6.45,34.31,118.31,
06/01/2021,01:10:13.05,237.79,-844.24,-50.78,13.54,-39.70,-65.79,-151.05,-29.85,-8.55,34.02,118.31,
06/01/2021,01:10:13.06,239.26,-841.80,-54.69,12.44,-35.00,-65.24,-151.05,-29.85,-8.55,34.02,118.31,
06/01/2021,01:10:13.07,236.82,-843.75,-56.15,12.74,-32.68,-61.40,-150.60,-30.30,-7.20,34.02,118.32,
06/01/2021,01:10:13.08,238.77,-827.64,-41.99,5.91,-30.00,-54.21,-153.15,-28.80,-8.25,34.31,118.31,
06/01/2021,01:10:13.09,235.84,-827.15,-46.39,3.48,-26.10,-51.59,-155.10,-30.90,-6.00,34.21,118.31,
06/01/2021,01:10:13.09,235.35,-833.50,-47.85,2.01,-17.99,-49.45,-153.45,-29.25,-8.25,34.40,118.31,
06/01/2021,01:10:13.10,229.00,-825.68,-54.20,1.28,-18.84,-47.38,-153.45,-29.25,-8.25,34.40,118.32,
06/01/2021,01:10:13.11,235.84,-823.73,-60.06,-0.85,-17.50,-44.21,-153.45,-29.25,-8.25,34.16,118.32,
06/01/2021,01:10:13.12,221.19,-815.92,-52.73,-5.85,-4.57,-37.32,-151.35,-28.05,-8.25,34.21,118.31,
06/01/2021,01:10:13.13,220.21,-798.83,-46.39,-7.62,-3.90,-33.11,-155.70,-30.30,-6.15,34.12,118.32,
06/01/2021,01:10:13.13,211.91,-797.85,-67.87,-9.51,-1.95,-31.95,-155.70,-30.30,-6.15,34.02,118.32,
06/01/2021,01:10:13.14,206.54,-796.88,-64.94,-10.43,2.74,-27.99,-155.70,-30.30,-6.15,34.21,118.32,
06/01/2021,01:10:13.15,212.40,-789.06,-43.95,-10.91,8.41,-26.65,-154.35,-29.70,-8.10,34.16,118.32,
06/01/2021,01:10:13.16,217.77,-774.41,-45.41,-12.74,19.21,-16.71,-154.20,-31.05,-6.45,34.31,118.32,
06/01/2021,01:10:13.17,209.96,-775.88,-41.50,-14.15,20.61,-12.13,-154.20,-31.05,-6.45,34.21,118.32,
06/01/2021,01:10:13.17,222.66,-763.67,-38.57,-17.26,22.50,-8.72,-153.75,-30.15,-7.35,34.02,118.32,
06/01/2021,01:10:13.18,223.63,-771.97,-37.60,-14.15,27.93,-7.80,-153.75,-30.15,-7.35,34.02,118.32,
06/01/2021,01:10:13.19,229.00,-763.67,-50.78,-16.59,30.91,-4.21,-154.80,-28.95,-7.65,34.02,118.32,
06/01/2021,01:10:13.19,233.40,-748.54,-36.62,-16.52,29.82,1.28,-154.80,-28.95,-7.65,34.02,118.32,
06/01/2021,01:10:13.21,252.44,-737.79,-28.32,-18.11,32.50,12.93,-155.70,-29.85,-6.15,34.21,118.32,
06/01/2021,01:10:13.21,257.81,-734.86,-33.69,-17.56,29.02,15.24,-154.95,-30.30,-6.90,34.21,118.32,
06/01/2021,01:10:13.22,258.79,-734.38,-52.73,-19.39,32.32,23.29,-154.95,-30.30,-6.90,34.40,118.32,
06/01/2021,01:10:13.23,260.25,-741.21,-41.99,-19.33,28.41,24.88,-154.35,-29.70,-6.60,34.31,118.32,
06/01/2021,01:10:13.23,248.05,-742.19,-51.27,-20.61,29.57,31.46,-154.35,-29.70,-6.60,34.21,118.32,
06/01/2021,01:10:13.25,248.54,-750.98,-63.96,-23.05,29.33,51.34,-154.35,-31.65,-6.00,34.31,118.32,
06/01/2021,01:10:13.25,263.18,-761.72,-76.66,-22.56,32.26,52.32,-154.05,-30.45,-5.55,34.31,118.32,
06/01/2021,01:10:13.26,274.41,-773.93,-80.57,-26.71,32.80,61.22,-154.05,-30.45,-5.55,34.31,118.32,
06/01/2021,01:10:13.26,266.11,-804.20,-77.15,-27.44,32.56,65.00,-153.00,-31.65,-5.25,34.50,118.32,
06/01/2021,01:10:13.27,277.83,-810.55,-102.05,-27.80,33.29,71.71,-153.00,-31.65,-5.25,34.02,118.32,
06/01/2021,01:10:13.29,286.62,-837.89,-107.42,-32.32,33.05,92.38,-153.75,-33.45,-4.50,34.31,118.32,
06/01/2021,01:10:13.29,319.34,-835.94,-106.93,-34.63,35.49,96.83,-153.75,-33.45,-4.50,34.21,118.32,
06/01/2021,01:10:13.30,308.59,-864.75,-124.02,-38.23,37.62,102.93,-153.75,-33.45,-4.50,34.36,118.32,
06/01/2021,01:10:13.30,329.59,-867.19,-123.54,-38.90,36.40,111.04,-153.30,-33.45,-6.60,34.31,118.32,
06/01/2021,01:10:13.31,326.66,-885.25,-122.56,-40.61,34.45,113.84,-153.30,-33.45,-6.60,34.21,118.32,
06/01/2021,01:10:13.33,359.38,-926.27,-139.65,-48.17,38.23,130.79,-151.95,-32.70,-6.60,34.12,118.32,
06/01/2021,01:10:13.33,363.28,-943.85,-137.70,-49.51,40.30,135.79,-153.15,-35.55,-4.35,34.16,118.32,
06/01/2021,01:10:13.37,483.40,-1706.54,-67.87,-56.71,60.18,191.22,-154.20,-39.30,-1.80,34.40,118.31,
06/01/2021,01:10:13.39,625.00,-1789.06,-59.57,-61.95,51.65,205.49,-154.20,-39.30,-1.80,34.21,118.31,
06/01/2021,01:10:13.39,686.52,-1744.14,-63.48,-58.96,50.55,206.95,-150.30,-38.10,-5.40,34.21,118.31,
06/01/2021,01:10:13.41,774.41,-1548.83,-138.18,-52.80,32.32,200.91,-148.80,-40.05,-5.70,34.21,118.31,
06/01/2021,01:10:13.41,797.36,-1446.29,-183.59,-50.49,29.27,190.49,-149.55,-40.35,-4.65,34.36,118.31,
06/01/2021,01:10:13.42,841.80,-1356.93,-203.61,-47.26,27.44,181.71,-149.55,-40.35,-4.65,34.21,118.31,
06/01/2021,01:10:13.43,840.82,-1214.36,-193.36,-43.66,22.93,168.84,-147.75,-38.55,-5.40,34.31,118.31,
06/01/2021,01:10:13.43,874.02,-1107.42,-189.45,-40.55,19.45,153.54,-146.85,-40.20,-7.35,34.12,118.31,
06/01/2021,01:10:13.45,787.60,-926.27,-133.79,-29.15,3.29,109.45,-146.70,-41.10,-6.45,34.31,118.31,
06/01/2021,01:10:13.45,750.98,-870.12,-136.23,-23.84,-3.66,94.33,-147.75,-40.35,-6.15,34.31,118.31,
06/01/2021,01:10:13.46,671.88,-875.00,-136.23,-21.77,-12.80,84.09,-147.75,-40.35,-6.15,34.21,118.31,
06/01/2021,01:10:13.47,628.42,-869.63,-130.37,-16.52,-18.48,73.29,-145.35,-40.20,-6.30,34.31,118.31,
06/01/2021,01:10:13.47,584.96,-888.67,-148.44,-15.18,-22.50,63.17,-144.90,-41.55,-6.90,34.21,118.31,
06/01/2021,01:10:13.49,535.64,-902.83,-175.29,-13.41,-18.35,41.83,-145.05,-40.95,-8.10,34.21,118.31,
06/01/2021,01:10:13.49,549.32,-902.34,-156.74,-12.99,-11.89,32.50,-147.90,-40.50,-6.00,34.31,118.31,
06/01/2021,01:10:13.50,547.85,-911.62,-156.25,-16.04,-7.01,25.79,-147.90,-40.50,-6.00,34.21,118.31,
06/01/2021,01:10:13.51,534.67,-921.39,-153.81,-19.02,3.35,18.84,-144.60,-41.70,-6.30,34.21,118.31,
06/01/2021,01:10:13.51,528.32,-920.41,-140.14,-19.02,12.38,16.71,-144.60,-41.70,-6.30,34.31,118.31,
06/01/2021,01:10:13.54,435.06,-964.36,-88.38,-23.72,83.78,-13.17,-148.95,-43.20,-3.45,34.02,118.31,
06/01/2021,01:10:13.55,441.89,-966.31,-83.98,-24.82,95.37,-15.91,-148.95,-43.20,-3.45,34.31,118.31,
06/01/2021,01:10:13.55,429.69,-973.63,-65.43,-25.61,103.05,-17.20,-145.50,-41.55,-8.55,34.21,118.31,
06/01/2021,01:10:13.56,439.94,-985.35,-34.18,-24.39,115.91,-23.54,-145.35,-43.95,-8.10,34.50,118.31,
06/01/2021,01:10:13.57,451.66,-985.35,-31.74,-25.06,122.13,-22.87,-145.35,-43.95,-8.10,34.16,118.31,
06/01/2021,01:10:13.58,457.03,-967.29,-0.49,-18.35,127.80,-32.20,-144.60,-43.20,-7.05,34.36,118.31,
06/01/2021,01:10:13.59,467.29,-939.94,21.48,-18.23,128.78,-32.38,-144.60,-43.20,-7.05,34.16,118.31,
06/01/2021,01:10:13.59,478.03,-899.41,35.64,-14.39,125.37,-33.90,-143.40,-41.55,-8.55,34.36,118.31,
06/01/2021,01:10:13.60,481.93,-887.70,46.88,-10.67,124.15,-37.07,-143.40,-41.55,-8.55,34.31,118.31,
06/01/2021,01:10:13.61,474.12,-860.35,45.41,-7.26,118.17,-36.16,-143.40,-41.55,-8.55,34.02,118.31,
06/01/2021,01:10:13.62,483.89,-804.20,71.29,0.67,97.01,-36.77,-144.60,-44.70,-6.60,34.21,118.31,
06/01/2021,01:10:13.63,490.72,-776.86,81.05,4.15,85.79,-36.04,-144.60,-44.70,-6.60,34.21,118.31,
06/01/2021,01:10:13.63,499.51,-783.20,80.57,7.87,72.50,-35.49,-143.25,-42.45,-6.60,34.21,118.31,
06/01/2021,01:10:13.64,476.07,-763.67,101.07,10.00,60.61,-34.57,-141.90,-42.45,-6.60,34.12,118.31,
06/01/2021,01:10:13.65,486.33,-763.67,96.19,15.61,41.95,-29.51,-141.90,-43.65,-7.20,34.12,118.31,
06/01/2021,01:10:13.66,501.46,-741.70,83.01,25.06,6.52,-23.72,-144.60,-43.20,-6.60,34.40,118.31,
06/01/2021,01:10:13.67,476.07,-752.93,87.40,26.95,-9.70,-20.43,-144.60,-43.20,-6.60,34.16,118.31,
06/01/2021,01:10:13.67,468.26,-741.21,81.54,29.63,-21.04,-18.41,-143.55,-42.75,-8.10,34.12,118.31,
06/01/2021,01:10:13.68,461.91,-753.91,77.15,31.16,-37.26,-11.59,-143.55,-42.75,-8.10,34.21,118.31,
06/01/2021,01:10:13.68,455.57,-763.67,60.55,33.60,-47.38,-10.61,-142.65,-42.60,-6.45,34.36,118.31,
06/01/2021,01:10:13.70,413.57,-794.43,25.88,35.91,-69.15,-3.29,-142.65,-43.35,-7.50,34.21,118.31,
06/01/2021,01:10:13.71,412.60,-805.18,14.65,38.60,-75.30,2.01,-142.65,-43.35,-7.50,34.31,118.31,
06/01/2021,01:10:13.71,416.50,-824.71,5.86,38.23,-79.21,5.00,-143.55,-41.70,-6.60,34.21,118.31,
06/01/2021,01:10:13.72,403.32,-825.20,-22.95,38.90,-84.21,7.50,-143.55,-41.70,-6.60,34.02,118.31,
06/01/2021,01:10:13.72,407.23,-833.01,-28.32,39.76,-84.02,6.52,-144.60,-41.70,-6.60,34.12,118.31,
06/01/2021,01:10:13.73,405.76,-834.96,-39.06,40.43,-90.98,10.91,-144.60,-41.70,-6.60,34.16,118.31,
06/01/2021,01:10:13.75,411.13,-838.38,-65.43,40.24,-91.22,13.90,-146.40,-42.00,-6.30,34.40,118.31,
06/01/2021,01:10:13.75,415.53,-864.75,-79.59,41.52,-88.66,16.83,-147.15,-43.20,-3.45,34.21,118.31,
06/01/2021,01:10:13.76,411.13,-858.40,-96.19,42.50,-87.80,17.74,-147.15,-43.20,-3.45,34.16,118.31,
06/01/2021,01:10:13.76,418.95,-869.14,-113.28,43.23,-86.77,18.66,-147.15,-43.20,-3.45,34.21,118.31,
06/01/2021,01:10:13.77,437.99,-878.91,-107.42,43.96,-86.22,18.17,-146.25,-41.10,-6.15,34.31,118.31,
06/01/2021,01:10:13.79,437.50,-894.04,-132.32,46.52,-82.44,14.15,-148.50,-42.90,-5.40,34.21,118.31,
06/01/2021,01:10:13.79,455.08,-891.11,-130.37,45.30,-82.01,11.59,-148.50,-42.90,-5.40,34.21,118.31,
06/01/2021,01:10:13.80,460.45,-896.00,-151.37,45.06,-84.39,11.40,-148.50,-42.90,-5.40,34.16,118.31,
06/01/2021,01:10:13.80,468.75,-900.39,-146.48,46.89,-85.85,8.41,-147.75,-40.05,-6.90,34.21,118.31,
06/01/2021,01:10:13.81,466.31,-902.83,-146.97,45.18,-84.88,4.33,-147.60,-40.95,-6.00,34.36,118.32,
06/01/2021,01:10:13.82,468.26,-933.11,-168.95,43.84,-88.41,-3.29,-148.20,-41.25,-5.55,34.12,118.31,
06/01/2021,01:10:13.83,471.68,-958.98,-167.48,43.17,-91.34,-7.13,-149.55,-41.10,-3.60,34.21,118.31,
06/01/2021,01:10:13.84,470.70,-981.45,-172.36,42.80,-90.79,-7.32,-149.55,-41.10,-3.60,34.21,118.31,
06/01/2021,01:10:13.84,477.54,-995.12,-176.76,43.54,-91.04,-12.62,-148.50,-40.80,-6.45,34.12,118.32,
06/01/2021,01:10:13.88,422.85,-1037.11,-211.43,35.49,-74.33,-29.70,-150.75,-41.70,-4.95,34.21,118.31,
06/01/2021,01:10:13.90,382.32,-1022.46,-211.43,34.88,-56.77,-38.17,-151.20,-42.00,-3.15,34.21,118.31,
06/01/2021,01:10:13.91,374.02,-1032.23,-207.03,32.56,-51.89,-38.96,-151.20,-42.00,-3.15,34.16,118.31,
06/01/2021,01:10:13.91,383.30,-1094.24,-215.33,34.45,-44.21,-39.33,-152.40,-39.60,-5.70,34.16,118.31,
06/01/2021,01:10:13.92,387.21,-1146.00,-211.91,31.28,-37.20,-38.54,-152.40,-39.60,-5.70,34.40,118.31,
06/01/2021,01:10:13.92,400.88,-1218.75,-222.17,28.41,-29.51,-36.59,-152.40,-39.60,-5.70,34.31,118.31,
06/01/2021,01:10:13.94,484.86,-1375.49,-185.55,19.02,-27.20,-32.99,-152.40,-40.35,-5.40,34.02,118.31,
