rtcDate,rtcTime,aX,aY,aZ,gX,gY,gZ,mX,mY,mZ,imu_degC,output_Hz,
06/01/2021,01:10:08.29,-40.53,-1047.85,-65.92,19.70,4.27,13.23,-66.90,19.95,-7.65,35.17,119.88,
06/01/2021,01:10:08.33,70.31,-958.01,-132.81,14.51,0.43,11.83,-64.95,21.30,-6.75,35.36,119.87,
06/01/2021,01:10:08.35,99.12,-932.13,-152.83,12.68,4.27,5.18,-67.20,21.60,-7.80,35.36,119.87,
06/01/2021,01:10:08.35,121.09,-931.64,-175.78,12.26,3.66,9.51,-67.20,21.60,-7.80,35.36,119.87,
06/01/2021,01:10:08.36,130.37,-915.53,-163.09,13.41,1.52,7.07,-65.85,22.65,-7.95,35.07,119.87,
06/01/2021,01:10:08.38,158.69,-892.58,-144.53,9.94,4.21,5.24,-65.85,22.65,-7.95,35.36,119.87,
06/01/2021,01:10:08.38,153.32,-882.81,-135.25,9.09,5.37,5.79,-65.85,20.25,-7.95,35.55,119.87,
06/01/2021,01:10:08.39,148.93,-886.23,-127.93,9.82,7.26,4.33,-65.85,20.25,-7.95,35.17,119.87,
06/01/2021,01:10:08.39,122.56,-875.00,-122.56,7.99,6.46,2.07,-65.25,22.35,-7.80,35.46,119.87,
06/01/2021,01:10:08.40,129.39,-880.37,-118.65,8.60,4.82,3.05,-63.75,23.25,-9.30,35.46,119.87,
06/01/2021,01:10:08.40,123.54,-881.35,-106.93,5.49,7.20,2.74,-63.75,23.25,-9.30,35.07,119.87,
06/01/2021,01:10:08.42,92.77,-890.14,-132.81,6.34,7.26,3.29,-67.65,21.45,-6.45,35.41,119.87,
06/01/2021,01:10:08.43,91.31,-883.79,-139.65,5.85,8.96,4.88,-67.65,21.45,-6.45,35.46,119.87,
06/01/2021,01:10:08.43,81.05,-887.70,-141.60,4.82,12.56,2.20,-64.80,22.65,-6.90,35.27,119.87,
06/01/2021,01:10:08.44,89.36,-899.90,-148.93,6.16,12.32,5.79,-64.80,22.65,-6.90,35.27,119.87,
06/01/2021,01:10:08.44,74.22,-901.86,-150.39,4.57,15.06,5.00,-64.80,22.65,-6.90,35.36,119.87,
06/01/2021,01:10:08.46,107.91,-887.70,-168.95,3.35,13.84,5.30,-64.20,22.35,-7.05,35.70,119.87,
06/01/2021,01:10:08.46,116.21,-888.18,-161.13,5.18,13.41,4.39,-64.20,22.35,-7.05,35.36,119.87,
06/01/2021,01:10:08.47,121.09,-891.60,-161.62,1.77,11.77,3.35,-64.35,22.20,-8.40,35.07,119.87,
06/01/2021,01:10:08.48,117.19,-884.77,-152.83,2.99,13.23,5.18,-64.35,22.20,-8.40,35.36,119.87,
06/01/2021,01:10:08.48,125.00,-888.67,-160.16,6.95,11.28,5.24,-64.95,22.05,-7.80,35.22,119.87,
06/01/2021,01:10:08.50,143.55,-897.95,-154.79,6.89,5.79,6.77,-64.35,22.20,-7.20,35.27,119.87,
06/01/2021,01:10:08.50,119.63,-897.95,-159.18,5.73,7.26,2.50,-65.10,19.95,-7.20,35.27,119.87,
06/01/2021,01:10:08.51,112.79,-909.67,-155.27,3.41,4.94,5.12,-64.50,22.35,-7.35,35.55,119.87,
06/01/2021,01:10:08.52,119.63,-913.57,-165.04,2.87,5.98,2.07,-64.50,22.35,-7.35,35.27,119.87,
06/01/2021,01:10:08.52,92.29,-928.22,-168.46,3.66,4.15,5.06,-64.35,21.00,-6.90,35.41,119.87,
06/01/2021,01:10:08.53,89.84,-936.04,-167.48,-1.52,4.02,6.65,-64.35,21.00,-6.90,35.17,119.87,
06/01/2021,01:10:08.54,64.45,-967.29,-179.69,-2.38,2.62,8.90,-65.25,23.25,-7.05,35.46,119.87,
06/01/2021,01:10:08.55,65.92,-969.24,-182.62,-6.10,8.17,7.56,-65.25,23.25,-7.05,35.55,119.87,
06/01/2021,01:10:08.55,57.62,-983.89,-202.15,-5.55,10.49,10.73,-65.25,23.25,-7.05,35.27,119.87,
06/01/2021,01:10:08.56,58.11,-1016.60,-188.48,-6.22,7.87,14.51,-64.05,21.90,-7.95,35.55,119.87,
06/01/2021,01:10:08.57,49.80,-1025.88,-212.40,-5.49,9.94,12.74,-64.05,21.90,-7.95,35.17,119.87,
06/01/2021,01:10:08.58,27.34,-1088.38,-250.49,-9.45,11.59,17.38,-64.80,21.45,-5.40,35.41,119.87,
06/01/2021,01:10:08.59,12.70,-1110.35,-246.09,-9.02,12.07,17.93,-64.80,21.45,-5.40,35.36,119.87,
06/01/2021,01:10:08.59,10.74,-1125.49,-257.32,-12.38,15.91,17.38,-64.80,20.70,-7.95,35.46,119.87,
06/01/2021,01:10:08.60,16.11,-1139.16,-286.13,-12.26,15.12,18.84,-64.80,20.70,-7.95,35.36,119.87,
06/01/2021,01:10:08.61,-0.98,-1147.95,-294.43,-16.16,17.68,22.62,-62.70,20.85,-7.35,35.46,119.87,
06/01/2021,01:10:08.62,-35.16,-1202.15,-340.82,-19.63,20.00,24.27,-64.80,21.45,-5.10,35.55,119.87,
06/01/2021,01:10:08.63,-44.92,-1236.82,-353.03,-21.71,22.07,27.26,-64.80,21.45,-5.10,35.27,119.87,
06/01/2021,01:10:08.63,-60.55,-1292.97,-342.29,-25.55,24.88,24.02,-63.00,20.55,-6.75,35.36,119.87,
06/01/2021,01:10:08.64,-81.54,-1335.45,-329.59,-27.38,27.38,25.49,-63.00,20.55,-6.75,35.27,119.87,
06/01/2021,01:10:08.65,-65.92,-1397.95,-293.95,-32.38,27.99,23.29,-63.00,20.55,-6.75,34.93,119.87,
06/01/2021,01:10:08.66,22.46,-1442.38,-122.56,-33.05,27.07,14.21,-62.55,21.00,-6.45,35.17,119.87,
06/01/2021,01:10:08.67,83.98,-1413.57,-49.80,-32.80,24.33,9.21,-62.55,21.00,-6.45,35.07,119.87,
06/01/2021,01:10:08.67,130.37,-1358.89,9.77,-28.35,17.74,4.15,-63.00,21.60,-7.35,35.27,119.87,
06/01/2021,01:10:08.68,148.44,-1310.06,53.71,-18.48,6.59,5.73,-63.00,21.60,-7.35,35.46,119.87,
06/01/2021,01:10:08.68,153.32,-1249.51,65.43,-7.07,-1.52,1.71,-62.85,20.70,-7.65,35.60,119.87,
06/01/2021,01:10:08.69,147.95,-1199.22,39.55,3.60,-6.22,1.46,-62.85,20.70,-7.65,35.07,119.88,
06/01/2021,01:10:08.71,23.44,-1107.42,-27.34,15.24,7.80,4.63,-64.80,18.75,-6.45,35.55,119.87,
06/01/2021,01:10:08.71,-2.93,-1082.03,-41.99,14.57,19.45,2.38,-64.80,18.75,-6.45,35.36,119.87,
06/01/2021,01:10:08.72,-40.53,-1056.15,-47.85,11.40,30.12,2.20,-63.60,19.95,-5.40,35.22,119.87,
06/01/2021,01:10:08.72,-85.45,-1019.04,-41.99,10.85,35.00,3.78,-63.75,20.55,-6.75,35.36,119.88,
06/01/2021,01:10:08.73,-122.07,-972.66,-29.30,11.04,44.76,5.37,-63.75,20.55,-6.75,35.36,119.88,
06/01/2021,01:10:08.74,-166.02,-859.86,-23.93,6.40,56.40,4.82,-64.20,20.10,-4.50,35.55,119.87,
06/01/2021,01:10:08.75,-181.15,-805.66,0.49,5.24,57.32,6.52,-64.20,20.10,-4.50,35.22,119.87,
06/01/2021,01:10:08.76,-188.96,-782.23,-5.86,1.46,61.16,5.00,-64.20,20.10,-4.50,35.27,119.88,
06/01/2021,01:10:08.76,-195.31,-771.97,27.34,1.83,66.52,3.23,-64.20,20.10,-4.50,35.46,119.88,
06/01/2021,01:10:08.77,-199.22,-789.06,34.67,-0.67,67.56,4.02,-64.35,21.00,-5.40,35.22,119.88,
06/01/2021,01:10:08.78,-196.78,-819.82,80.08,-3.41,74.76,1.83,-65.25,18.15,-3.75,35.07,119.88,
06/01/2021,01:10:08.79,-158.20,-847.66,84.47,-1.65,75.67,3.72,-65.25,18.15,-3.75,35.55,119.88,
06/01/2021,01:10:08.80,-148.44,-878.42,101.56,-3.41,77.38,4.63,-62.85,20.25,-6.45,35.46,119.88,
06/01/2021,01:10:08.80,-130.37,-910.64,96.68,0.12,74.76,6.77,-62.85,20.25,-6.45,35.17,119.88,
06/01/2021,01:10:08.81,-89.84,-946.29,63.96,2.50,66.34,8.66,-62.70,20.10,-5.55,35.27,119.88,
06/01/2021,01:10:08.84,62.50,-1073.73,-83.98,3.23,26.10,-0.30,-65.25,20.10,-3.00,35.07,119.87,
06/01/2021,01:10:08.86,111.82,-1061.52,-90.33,-6.59,18.84,-9.51,-65.10,19.50,-1.80,35.55,119.87,
06/01/2021,01:10:08.87,118.65,-1046.39,-79.59,-7.56,16.46,-9.45,-65.25,19.35,-1.95,35.36,119.87,
06/01/2021,01:10:08.88,107.42,-1025.88,-64.45,-7.44,22.07,-10.24,-61.95,20.55,-4.20,35.22,119.87,
06/01/2021,01:10:08.88,105.96,-1013.18,-65.43,-6.89,23.41,-12.87,-61.95,20.55,-4.20,35.03,119.87,
06/01/2021,01:10:08.89,75.20,-1004.88,-58.59,-5.12,23.84,-11.71,-63.00,20.85,-4.50,35.17,119.87,
06/01/2021,01:10:08.90,45.41,-964.84,-47.85,3.05,25.55,-15.55,-63.00,22.80,-3.75,35.07,119.87,
06/01/2021,01:10:08.91,28.81,-955.57,-58.11,6.22,26.52,-11.77,-65.10,19.50,-2.10,35.22,119.87,
06/01/2021,01:10:08.91,33.69,-938.96,-64.94,6.71,25.91,-11.65,-65.10,19.50,-2.10,35.36,119.87,
06/01/2021,01:10:08.92,21.00,-923.83,-58.11,11.04,28.17,-10.73,-65.10,19.50,-2.10,35.60,119.87,
06/01/2021,01:10:08.93,12.70,-914.06,-68.85,8.84,23.84,-11.71,-63.45,21.30,-4.50,35.22,119.87,
06/01/2021,01:10:08.94,-6.84,-876.95,-66.41,12.13,19.70,-8.60,-63.45,21.30,-4.50,35.22,119.87,
06/01/2021,01:10:08.95,-14.16,-854.00,-77.15,12.20,15.30,-8.90,-64.35,21.90,-0.30,35.41,119.87,
06/01/2021,01:10:08.95,-23.93,-838.87,-69.34,10.24,14.39,-6.34,-64.35,21.90,-0.30,35.36,119.87,
06/01/2021,01:10:08.96,-11.72,-829.59,-97.17,10.24,5.85,-5.61,-63.75,20.85,-3.00,35.60,119.87,
06/01/2021,01:10:08.97,9.77,-814.45,-106.93,8.23,4.33,-3.90,-62.25,20.85,-3.00,35.17,119.87,
06/01/2021,01:10:08.97,1.95,-816.41,-121.58,8.60,-1.95,-4.15,-62.25,20.85,-3.45,35.36,119.87,
06/01/2021,01:10:08.99,34.18,-831.54,-122.07,7.07,-10.98,-3.72,-64.50,20.55,-1.20,35.60,119.87,
06/01/2021,01:10:08.99,47.36,-846.68,-120.61,7.13,-15.73,0.24,-64.50,20.55,-1.20,35.46,119.87,
06/01/2021,01:10:09.00,26.86,-848.63,-113.77,8.54,-19.63,-1.22,-63.45,20.85,-3.00,35.03,119.87,
06/01/2021,01:10:09.00,45.41,-859.38,-113.77,9.76,-20.85,0.55,-63.45,20.85,-3.00,35.27,119.87,
06/01/2021,01:10:09.01,23.44,-860.84,-108.40,13.17,-25.18,0.55,-63.45,20.85,-3.00,35.46,119.87,
06/01/2021,01:10:09.03,-5.86,-861.82,-97.66,10.61,-25.30,-2.50,-63.75,20.85,-2.70,35.27,119.87,
06/01/2021,01:10:09.03,-8.79,-868.16,-94.73,14.57,-24.70,-2.74,-63.75,20.85,-2.70,35.36,119.87,
06/01/2021,01:10:09.04,-30.27,-867.68,-82.03,14.88,-22.07,-2.50,-61.80,20.25,-2.55,35.22,119.87,
06/01/2021,01:10:09.04,-36.13,-884.77,-97.17,17.99,-24.63,-3.41,-61.80,20.25,-2.55,35.41,119.87,
06/01/2021,01:10:09.05,-47.85,-883.30,-99.61,17.99,-24.70,-2.20,-62.55,22.20,-4.35,35.27,119.87,
06/01/2021,01:10:09.07,-42.97,-902.83,-129.88,18.41,-22.01,-2.68,-63.00,20.55,-3.75,35.46,119.87,
06/01/2021,01:10:09.07,-32.23,-920.90,-158.69,16.22,-23.29,-4.51,-66.45,19.35,-0.90,35.46,119.87,
06/01/2021,01:10:09.08,-36.13,-937.99,-155.27,14.57,-21.95,-4.39,-63.30,21.90,-2.10,35.36,119.87,
06/01/2021,01:10:09.08,-14.65,-944.34,-175.29,14.15,-26.22,-4.15,-63.30,21.90,-2.10,35.22,119.87,
06/01/2021,01:10:09.09,-1.95,-972.66,-175.78,12.44,-27.56,-4.88,-64.35,21.90,-3.15,35.07,119.87,
06/01/2021,01:10:09.11,37.11,-984.38,-185.55,6.52,-37.74,-8.78,-64.35,21.90,-3.15,35.27,119.87,
06/01/2021,01:10:09.11,27.34,-993.16,-185.06,3.60,-40.85,-10.91,-64.80,20.25,-1.80,35.55,119.87,
06/01/2021,01:10:09.12,41.99,-1000.98,-186.52,4.70,-41.71,-11.40,-64.80,20.25,-1.80,35.27,119.87,
06/01/2021,01:10:09.12,24.90,-1001.95,-181.15,1.89,-44.51,-13.90,-64.80,20.25,-1.80,35.27,119.87,
06/01/2021,01:10:09.13,30.76,-1013.67,-173.34,0.55,-41.28,-15.00,-62.25,21.60,-4.50,35.27,119.88,
06/01/2021,01:10:09.13,1.46,-1023.44,-168.95,1.40,-41.40,-14.63,-62.25,21.60,-4.50,35.36,119.88,
06/01/2021,01:10:09.15,-49.32,-1056.64,-160.16,1.59,-34.09,-13.23,-64.95,21.60,-2.70,34.93,119.87,
06/01/2021,01:10:09.16,-65.92,-1071.78,-179.69,0.24,-32.32,-12.56,-64.95,21.60,-2.70,35.46,119.87,
06/01/2021,01:10:09.16,-68.85,-1100.10,-176.76,1.34,-30.85,-12.20,-63.75,21.60,-4.50,35.22,119.88,
06/01/2021,01:10:09.17,-91.80,-1123.54,-178.22,3.78,-32.01,-10.61,-63.75,21.60,-4.50,35.22,119.88,
06/01/2021,01:10:09.17,-96.19,-1135.74,-200.68,0.79,-30.37,-7.99,-63.00,21.60,-5.25,35.36,119.88,
06/01/2021,01:10:09.19,-59.57,-1159.18,-261.72,-3.78,-30.37,-10.37,-64.50,20.85,-4.20,35.22,119.87,
06/01/2021,01:10:09.20,-46.39,-1171.88,-319.82,-4.45,-33.90,-9.15,-64.50,20.85,-4.20,35.36,119.88,
06/01/2021,01:10:09.20,-8.79,-1175.29,-346.19,-4.33,-34.94,-10.85,-61.65,21.60,-6.30,35.60,119.88,
06/01/2021,01:10:09.21,24.41,-1169.43,-379.39,-6.34,-37.38,-11.95,-61.65,21.60,-6.30,35.41,119.88,
06/01/2021,01:10:09.21,32.71,-1174.32,-415.53,-12.32,-38.96,-18.05,-61.65,21.60,-6.30,35.36,119.88,
06/01/2021,01:10:09.23,120.61,-1173.34,-436.04,-25.43,-44.94,-19.57,-64.35,21.90,-6.45,35.55,119.88,
06/01/2021,01:10:09.23,143.55,-1209.47,-421.88,-31.71,-47.62,-18.60,-66.15,20.70,-3.60,35.55,119.88,
06/01/2021,01:10:09.24,148.44,-1226.56,-385.74,-40.00,-51.34,-19.57,-63.00,20.85,-7.35,35.27,119.88,
06/01/2021,01:10:09.25,151.86,-1254.88,-350.10,-48.96,-52.20,-20.79,-63.00,20.85,-7.35,35.36,119.88,
06/01/2021,01:10:09.25,148.93,-1271.97,-283.20,-52.68,-55.91,-19.94,-63.00,22.80,-7.80,35.22,119.88,
06/01/2021,01:10:09.27,-1.95,-1230.96,-45.41,-46.40,-52.26,-15.30,-64.05,22.20,-7.20,35.55,119.88,
06/01/2021,01:10:09.27,-55.66,-1186.52,35.64,-37.01,-46.28,-13.05,-65.25,21.60,-4.50,35.55,119.88,
06/01/2021,01:10:09.28,-120.12,-1153.81,94.73,-21.59,-40.06,-7.26,-64.20,22.80,-8.55,35.36,119.88,
06/01/2021,01:10:09.29,-126.46,-1145.51,121.09,-8.60,-31.04,-3.90,-64.20,22.80,-8.55,35.27,119.88,
06/01/2021,01:10:09.29,-149.90,-1131.35,122.56,4.94,-25.49,-1.71,-64.95,22.35,-7.80,35.36,119.88,
06/01/2021,01:10:09.31,-42.48,-1111.33,83.01,7.68,-18.96,8.72,-64.95,22.35,-7.80,35.22,119.88,
06/01/2021,01:10:09.31,1.46,-1089.36,78.12,7.20,-21.52,9.76,-65.40,23.40,-6.90,35.17,119.88,
06/01/2021,01:10:09.35,217.29,-863.28,60.55,-0.85,-30.98,1.52,-66.00,21.60,-7.80,35.55,119.87,
06/01/2021,01:10:09.36,301.76,-830.08,70.31,-2.56,-49.63,-6.04,-64.05,22.20,-6.45,35.07,119.87,
06/01/2021,01:10:09.37,337.40,-826.66,77.64,-5.43,-51.65,-8.35,-65.25,20.85,-7.35,35.27,119.87,
06/01/2021,01:10:09.38,364.75,-856.45,59.08,-2.13,-68.17,-13.96,-63.75,22.80,-9.30,35.17,119.87,
06/01/2021,01:10:09.39,362.30,-864.75,32.71,-0.24,-66.34,-17.80,-64.95,21.60,-8.55,35.22,119.87,
06/01/2021,01:10:09.39,311.04,-906.74,5.37,1.04,-67.26,-21.77,-64.95,21.60,-8.55,35.36,119.87,
06/01/2021,01:10:09.40,270.02,-943.36,-15.62,3.60,-61.28,-20.67,-64.95,21.60,-8.55,35.22,119.87,
06/01/2021,01:10:09.41,232.91,-987.30,-39.55,7.20,-55.18,-24.09,-64.95,23.25,-11.10,35.36,119.87,
06/01/2021,01:10:09.42,95.70,-1057.62,-104.49,12.13,-40.61,-18.29,-64.05,22.95,-8.70,35.36,119.87,
06/01/2021,01:10:09.43,42.97,-1074.71,-111.82,14.76,-37.50,-10.49,-66.45,22.05,-9.30,35.22,119.87,
06/01/2021,01:10:09.43,4.39,-1103.52,-99.61,15.91,-36.28,-8.72,-64.95,23.55,-11.40,35.55,119.87,
06/01/2021,01:10:09.44,-6.84,-1111.33,-89.84,15.12,-33.48,-5.43,-64.95,23.55,-11.40,35.55,119.87,
06/01/2021,01:10:09.45,-57.62,-1109.86,-87.40,17.26,-33.17,-1.16,-64.05,22.95,-11.70,35.41,119.87,
06/01/2021,01:10:09.45,-32.71,-1078.61,-66.89,19.27,-33.84,5.24,-64.05,22.95,-11.70,35.55,119.87,
06/01/2021,01:10:09.47,-72.75,-1044.92,-63.96,17.87,-30.43,8.90,-63.60,23.40,-12.00,35.46,119.87,
06/01/2021,01:10:09.47,-56.64,-1000.00,-59.57,15.43,-28.48,16.28,-63.60,23.40,-12.00,35.60,119.87,
06/01/2021,01:10:09.48,-62.99,-967.29,-78.61,17.44,-29.51,14.51,-65.25,24.00,-11.10,35.55,119.87,
06/01/2021,01:10:09.48,-48.83,-943.36,-76.66,16.83,-28.11,15.49,-65.25,24.00,-11.10,35.07,119.87,
06/01/2021,01:10:09.49,-36.13,-916.50,-100.59,17.32,-25.12,16.95,-65.25,24.00,-11.10,35.36,119.87,
06/01/2021,01:10:09.51,21.97,-887.21,-106.93,13.23,-21.89,12.26,-64.80,21.45,-10.50,35.22,119.87,
06/01/2021,01:10:09.51,33.69,-875.00,-131.35,11.52,-22.62,12.01,-64.80,21.45,-10.50,35.27,119.87,
06/01/2021,01:10:09.52,58.11,-887.21,-136.23,11.65,-22.56,9.63,-64.35,21.90,-12.30,35.36,119.87,
06/01/2021,01:10:09.52,93.26,-877.93,-120.61,10.98,-21.83,7.56,-62.70,24.00,-11.40,35.27,119.87,
06/01/2021,01:10:09.53,113.77,-863.77,-121.58,10.79,-20.37,5.18,-62.70,24.00,-11.40,35.22,119.87,
06/01/2021,01:10:09.55,158.20,-859.86,-112.79,8.23,-15.00,2.38,-64.95,24.00,-10.05,35.36,119.87,
06/01/2021,01:10:09.55,147.95,-871.09,-100.59,10.37,-12.62,1.22,-64.95,24.00,-10.05,35.55,119.87,
06/01/2021,01:10:09.56,139.65,-851.07,-119.63,12.93,-15.61,1.52,-64.95,24.00,-10.05,35.46,119.87,
06/01/2021,01:10:09.56,117.19,-845.70,-106.93,13.72,-9.27,2.26,-64.95,24.00,-10.05,35.07,119.87,
06/01/2021,01:10:09.57,83.01,-853.52,-117.68,11.34,-8.17,-2.62,-62.70,22.05,-11.40,35.07,119.87,
06/01/2021,01:10:09.59,48.34,-856.93,-121.58,11.83,-5.12,1.28,-63.45,21.30,-11.85,35.27,119.87,
06/01/2021,01:10:09.59,19.53,-874.02,-108.89,7.38,-5.55,3.35,-63.45,21.30,-11.85,35.07,119.87,
06/01/2021,01:10:09.60,10.25,-881.35,-118.65,7.56,-1.16,1.83,-63.60,23.70,-12.00,35.27,119.87,
06/01/2021,01:10:09.60,10.25,-883.79,-116.70,6.10,0.37,3.54,-63.60,23.70,-12.00,35.27,119.87,
06/01/2021,01:10:09.61,-3.91,-890.14,-122.07,4.21,1.46,4.02,-62.70,23.25,-11.10,35.07,119.87,
06/01/2021,01:10:09.62,2.44,-906.74,-150.88,2.62,7.01,6.95,-62.25,23.55,-11.10,35.22,119.87,
06/01/2021,01:10:09.63,11.72,-901.37,-156.74,3.60,8.29,8.96,-64.20,21.60,-9.60,35.55,119.87,
06/01/2021,01:10:09.64,34.67,-911.62,-149.90,2.32,11.40,6.65,-63.45,22.35,-10.65,35.27,119.87,
06/01/2021,01:10:09.64,45.41,-936.52,-158.20,5.00,12.93,7.44,-63.45,22.35,-10.65,35.17,119.87,
06/01/2021,01:10:09.65,67.87,-930.66,-159.67,5.30,14.51,8.17,-63.45,22.35,-10.65,35.22,119.88,
06/01/2021,01:10:09.65,87.89,-936.52,-163.57,8.17,15.73,10.91,-63.45,22.35,-10.65,35.27,119.88,
06/01/2021,01:10:09.67,86.43,-956.54,-166.99,9.21,13.35,10.73,-62.70,20.85,-10.65,35.17,119.87,
06/01/2021,01:10:09.68,107.42,-971.68,-174.32,9.15,12.68,11.22,-62.70,20.85,-10.65,35.55,119.88,
06/01/2021,01:10:09.68,90.33,-983.40,-196.29,5.18,13.05,10.91,-62.70,22.80,-10.05,35.55,119.88,
06/01/2021,01:10:09.69,97.17,-994.14,-186.04,3.35,11.77,11.22,-62.25,22.35,-11.40,35.36,119.88,
06/01/2021,01:10:09.69,73.24,-1000.98,-208.01,0.37,12.93,9.94,-62.25,22.35,-11.40,35.22,119.88,
06/01/2021,01:10:09.71,65.43,-1010.74,-203.12,-2.13,14.15,10.73,-64.50,20.85,-10.65,35.55,119.88,
06/01/2021,01:10:09.71,58.11,-1018.55,-199.71,-4.76,17.01,10.91,-64.50,20.85,-10.65,35.27,119.88,
06/01/2021,01:10:09.72,62.01,-1038.09,-204.10,-5.55,16.10,10.12,-61.95,22.35,-10.05,35.36,119.88,
06/01/2021,01:10:09.73,51.76,-1044.43,-211.91,-5.00,16.83,10.73,-61.95,22.35,-10.05,35.17,119.88,
06/01/2021,01:10:09.73,39.06,-1058.59,-229.00,-7.38,21.71,10.00,-63.00,22.05,-11.85,35.55,119.88,
06/01/2021,01:10:09.75,8.79,-1097.66,-244.63,-9.70,26.22,11.40,-63.75,21.30,-8.55,35.55,119.88,
06/01/2021,01:10:09.75,-9.77,-1098.63,-268.55,-11.04,26.71,13.11,-63.75,21.30,-8.55,35.55,119.88,
06/01/2021,01:10:09.76,-11.23,-1103.03,-281.25,-13.11,29.88,15.85,-63.75,21.30,-8.55,35.46,119.88,
06/01/2021,01:10:09.77,-17.09,-1104.00,-303.71,-15.55,30.55,15.37,-63.75,21.30,-8.55,35.36,119.88,
06/01/2021,01:10:09.77,-32.23,-1101.56,-311.52,-17.32,32.50,16.40,-62.55,23.70,-9.45,35.07,119.88,
06/01/2021,01:10:09.79,-63.96,-1131.35,-371.58,-25.18,41.59,17.32,-63.60,21.90,-7.65,35.17,119.88,
06/01/2021,01:10:09.79,-101.56,-1167.97,-404.30,-27.26,43.72,19.57,-63.60,21.90,-7.65,35.22,119.88,
06/01/2021,01:10:09.80,-128.42,-1196.78,-404.79,-28.17,42.68,21.04,-64.50,22.35,-10.35,34.93,119.88,
06/01/2021,01:10:09.81,-156.25,-1261.23,-393.55,-32.50,48.78,20.91,-64.50,22.35,-10.35,35.36,119.88,
06/01/2021,01:10:09.81,-149.90,-1309.57,-343.75,-37.01,50.18,22.80,-61.95,23.55,-9.30,35.46,119.88,
06/01/2021,01:10:09.82,-145.51,-1354.98,-276.37,-42.26,51.22,17.87,-61.95,23.55,-9.30,35.36,119.88,
06/01/2021,01:10:09.86,56.15,-1152.34,59.57,-2.74,36.46,2.13,-62.55,21.90,-9.00,35.36,119.87,
06/01/2021,01:10:09.88,19.04,-1129.88,-2.93,9.02,46.46,-4.15,-62.25,22.35,-8.55,35.55,119.87,
06/01/2021,01:10:09.88,14.65,-1102.05,-10.25,6.71,53.48,-2.80,-65.10,22.20,-8.70,35.55,119.87,
06/01/2021,01:10:09.89,5.86,-1077.64,5.37,7.01,53.17,-1.89,-65.10,22.20,-8.70,35.17,119.87,
06/01/2021,01:10:09.89,-18.55,-1036.62,-7.32,4.70,56.04,-5.61,-64.35,22.95,-8.40,35.36,119.87,
06/01/2021,01:10:09.91,-74.22,-912.11,17.58,4.33,60.30,-0.98,-61.65,21.60,-10.05,35.36,119.87,
06/01/2021,01:10:09.91,-102.05,-882.81,19.53,1.77,62.56,-0.73,-65.40,22.65,-6.90,35.36,119.87,
06/01/2021,01:10:09.92,-136.23,-860.84,32.23,0.79,65.24,-2.74,-65.40,22.65,-6.90,35.07,119.87,
06/01/2021,01:10:09.93,-176.76,-838.38,58.59,0.18,66.95,-5.73,-65.40,22.65,-6.90,35.55,119.87,
06/01/2021,01:10:09.93,-191.41,-831.05,61.04,-0.43,74.02,-2.01,-62.85,24.60,-9.45,35.70,119.87,
06/01/2021,01:10:09.95,-265.14,-865.23,129.39,-1.40,73.23,2.07,-62.85,24.60,-9.45,35.46,119.87,
06/01/2021,01:10:09.95,-280.76,-870.61,141.60,3.72,71.83,6.71,-64.80,23.70,-5.10,35.36,119.87,
06/01/2021,01:10:09.96,-266.11,-881.35,131.84,5.91,70.85,10.79,-64.80,23.70,-5.10,35.36,119.87,
06/01/2021,01:10:09.96,-227.05,-901.86,111.33,8.29,69.51,13.05,-63.30,23.70,-8.70,35.46,119.87,
06/01/2021,01:10:09.97,-189.45,-926.76,60.55,9.70,68.05,12.80,-63.30,23.70,-8.70,35.75,119.87,
06/01/2021,01:10:09.99,-75.68,-995.12,-14.16,11.52,57.20,16.16,-64.50,22.05,-4.80,35.46,119.87,
06/01/2021,01:10:09.99,-11.23,-988.77,-44.92,8.41,53.54,12.87,-64.80,21.90,-4.35,35.17,119.87,
06/01/2021,01:10:10.00,40.04,-996.58,-51.27,7.50,50.06,9.21,-64.80,21.90,-4.35,35.07,119.87,
06/01/2021,01:10:10.00,65.92,-1008.30,-52.25,7.01,47.62,6.46,-64.35,23.70,-5.85,35.55,119.87,
06/01/2021,01:10:10.01,110.35,-1004.88,-63.96,3.17,44.63,4.70,-64.35,23.70,-5.85,35.27,119.87,
06/01/2021,01:10:10.02,135.25,-1021.00,-61.52,3.96,41.22,-0.37,-64.35,23.70,-5.85,35.07,119.87,
06/01/2021,01:10:10.03,172.85,-1014.16,-56.64,5.79,36.22,-8.41,-63.45,23.55,-4.80,35.07,119.87,
06/01/2021,01:10:10.04,165.04,-992.68,-56.64,7.32,36.59,-10.24,-63.45,23.55,-4.80,35.27,119.87,
06/01/2021,01:10:10.04,147.46,-993.16,-67.87,3.96,37.20,-17.99,-64.80,22.95,-6.15,35.60,119.87,
06/01/2021,01:10:10.05,141.60,-979.00,-74.71,8.84,35.61,-13.84,-64.80,22.95,-6.15,35.55,119.87,
06/01/2021,01:10:10.05,118.16,-964.84,-71.29,9.15,34.57,-14.39,-63.75,23.55,-4.50,35.36,119.87,
06/01/2021,01:10:10.07,50.78,-915.04,-58.11,10.30,33.29,-16.89,-65.70,24.00,-3.45,35.07,119.87,
06/01/2021,01:10:10.08,4.39,-929.20,-63.48,11.65,30.91,-16.16,-66.00,22.80,-3.00,35.22,119.87,
06/01/2021,01:10:10.08,-12.21,-911.13,-56.15,12.74,32.26,-14.63,-66.00,22.80,-3.00,35.36,119.87,
06/01/2021,01:10:10.09,-36.13,-912.60,-60.06,17.26,31.46,-12.13,-64.50,24.75,-4.50,35.55,119.88,
06/01/2021,01:10:10.09,-36.62,-900.88,-57.62,16.65,27.74,-10.00,-64.35,24.60,-4.65,35.27,119.88,
06/01/2021,01:10:10.11,-66.89,-892.58,-90.33,18.90,22.26,-1.95,-64.35,24.60,-4.65,35.55,119.87,
06/01/2021,01:10:10.11,-52.73,-877.44,-91.31,16.95,21.28,-0.98,-68.10,23.70,-2.85,35.36,119.87,
06/01/2021,01:10:10.12,-80.08,-859.38,-100.59,16.59,15.55,-0.85,-68.10,23.70,-2.85,35.27,119.88,
06/01/2021,01:10:10.13,-86.91,-852.54,-96.68,15.00,16.28,0.98,-64.95,25.50,-2.70,35.55,119.88,
06/01/2021,01:10:10.13,-78.61,-856.93,-91.31,13.17,14.09,5.55,-64.95,25.50,-2.70,35.07,119.88,
06/01/2021,01:10:10.14,-70.80,-854.00,-107.91,12.20,13.54,4.39,-66.15,25.65,-4.65,35.17,119.88,
06/01/2021,01:10:10.15,-32.71,-876.46,-126.95,13.11,7.87,7.99,-64.95,23.25,-2.70,35.22,119.88,
06/01/2021,01:10:10.16,-26.86,-884.77,-123.05,12.07,5.79,8.17,-64.95,23.25,-2.70,35.36,119.88,
06/01/2021,01:10:10.17,-41.50,-898.44,-123.05,12.26,5.61,8.66,-65.70,24.75,-3.45,35.36,119.88,
06/01/2021,01:10:10.17,-27.83,-922.85,-126.95,11.34,5.30,7.93,-65.70,24.75,-3.45,35.17,119.88,
06/01/2021,01:10:10.18,-22.46,-910.64,-132.32,12.74,2.68,7.01,-65.70,24.75,-3.45,35.55,119.88,
06/01/2021,01:10:10.19,-44.92,-918.95,-122.56,12.68,4.27,3.66,-66.00,25.80,-3.75,35.46,119.88,
06/01/2021,01:10:10.20,-58.59,-919.43,-107.42,12.13,1.59,3.84,-66.00,25.80,-3.75,35.36,119.88,
06/01/2021,01:10:10.20,-49.32,-931.64,-132.81,11.83,3.29,2.68,-65.25,25.80,-4.20,35.22,119.88,
06/01/2021,01:10:10.21,-47.85,-936.04,-146.00,10.67,2.62,0.61,-65.25,25.80,-4.20,35.36,119.88,
06/01/2021,01:10:10.22,-64.45,-955.08,-146.00,9.76,1.34,1.46,-65.40,24.90,-3.60,35.46,119.88,
06/01/2021,01:10:10.23,-54.69,-947.75,-157.71,7.74,-2.87,-1.59,-66.60,26.10,-4.35,35.22,119.88,
06/01/2021,01:10:10.24,-44.92,-960.45,-145.51,7.07,-1.95,-2.32,-67.65,24.15,-2.10,35.07,119.88,
06/01/2021,01:10:10.24,-40.04,-957.52,-169.43,7.87,-2.32,-4.39,-67.65,24.15,-2.10,35.46,119.88,
06/01/2021,01:10:10.25,-31.74,-950.68,-165.04,4.51,-3.72,-6.34,-65.85,25.35,-4.65,35.36,119.88,
06/01/2021,01:10:10.26,-17.58,-945.31,-175.78,2.99,-3.84,-5.37,-66.75,25.50,-4.50,35.55,119.88,
06/01/2021,01:10:10.26,-13.18,-948.24,-182.13,2.38,-5.12,-5.12,-66.75,25.50,-4.50,35.07,119.88,
06/01/2021,01:10:10.28,24.41,-972.66,-186.52,-0.49,-8.41,-10.61,-67.50,25.05,-2.25,35.55,119.88,
06/01/2021,01:10:10.28,28.32,-980.47,-199.22,-2.62,-11.04,-9.94,-67.50,25.05,-2.25,35.36,119.88,
06/01/2021,01:10:10.29,35.16,-980.96,-203.12,-3.72,-12.32,-8.41,-67.50,25.05,-2.25,35.46,119.88,
06/01/2021,01:10:10.29,18.07,-988.28,-187.01,-5.49,-9.82,-12.87,-67.50,25.05,-2.25,35.17,119.88,
06/01/2021,01:10:10.30,13.67,-983.89,-186.04,-5.61,-13.90,-12.38,-66.60,27.15,-4.35,35.27,119.88,
06/01/2021,01:10:10.32,-10.74,-1017.58,-197.27,-7.38,-8.41,-15.37,-68.25,27.15,-4.65,35.22,119.88,
06/01/2021,01:10:10.32,-24.41,-1022.95,-212.89,-6.71,-11.04,-14.76,-68.25,24.75,-4.20,35.36,119.88,
06/01/2021,01:10:10.33,-37.60,-1054.69,-212.89,-5.43,-9.09,-11.83,-67.95,26.25,-4.80,35.46,119.88,
06/01/2021,01:10:10.33,-55.66,-1063.96,-233.89,-5.85,-8.17,-13.05,-67.95,26.25,-4.80,35.36,119.88,
06/01/2021,01:10:10.37,-71.78,-1144.53,-332.03,-15.67,-1.40,-10.24,-69.00,25.50,-6.00,35.55,119.87,
06/01/2021,01:10:10.39,35.16,-1271.00,-422.36,-40.00,-10.00,-11.59,-69.90,25.65,-6.90,35.36,119.87,
06/01/2021,01:10:10.40,75.68,-1317.38,-402.34,-46.65,-14.15,-9.51,-69.90,25.65,-6.90,35.55,119.87,
06/01/2021,01:10:10.40,87.89,-1376.46,-329.59,-50.67,-18.78,-11.40,-69.60,26.40,-6.90,35.17,119.87,
06/01/2021,01:10:10.41,65.92,-1417.97,-237.79,-50.98,-19.57,-9.70,-69.00,27.75,-8.55,35.17,119.87,
06/01/2021,01:10:10.42,39.06,-1418.46,-100.59,-49.33,-19.94,-9.51,-69.00,27.75,-8.55,35.03,119.87,
06/01/2021,01:10:10.43,-94.24,-1299.80,151.86,-18.78,3.05,-5.00,-70.35,27.60,-7.65,35.27,119.87,
06/01/2021,01:10:10.44,-167.48,-1252.44,198.73,-3.72,15.73,-3.66,-70.35,27.60,-7.65,35.36,119.87,
06/01/2021,01:10:10.44,-198.24,-1222.66,194.34,7.62,24.63,-1.89,-70.80,28.95,-8.10,35.36,119.87,
06/01/2021,01:10:10.45,-214.36,-1191.41,184.57,18.29,33.60,1.22,-70.80,28.95,-8.10,35.36,119.87,
06/01/2021,01:10:10.45,-208.50,-1143.07,147.46,23.90,40.24,5.98,-70.80,28.95,-8.10,35.36,119.87,
06/01/2021,01:10:10.47,-116.70,-1020.51,28.32,23.54,52.32,10.91,-71.70,29.55,-7.65,35.60,119.87,
06/01/2021,01:10:10.48,-55.66,-982.91,0.98,17.68,54.27,13.66,-71.70,29.55,-7.65,35.36,119.87,
06/01/2021,01:10:10.48,18.55,-925.78,4.39,13.60,50.61,15.06,-70.65,28.35,-8.40,35.36,119.87,
06/01/2021,01:10:10.49,87.40,-897.95,7.81,6.04,44.51,12.07,-70.65,28.35,-8.40,35.55,119.87,
06/01/2021,01:10:10.49,157.71,-862.30,19.04,2.38,35.79,9.51,-70.65,28.35,-8.70,35.07,119.87,
06/01/2021,01:10:10.50,240.23,-817.38,36.13,-2.93,26.59,2.20,-71.70,29.10,-8.40,35.27,119.87,
06/01/2021,01:10:10.52,374.02,-743.16,97.66,-3.54,2.20,-9.82,-71.55,28.95,-5.55,35.27,119.87,
06/01/2021,01:10:10.52,386.72,-736.82,112.30,-4.70,-5.00,-14.82,-74.55,26.70,-6.30,35.22,119.87,
06/01/2021,01:10:10.53,370.12,-737.79,105.96,-2.20,-10.55,-21.10,-74.55,26.70,-6.30,35.55,119.87,
06/01/2021,01:10:10.53,363.28,-754.88,116.21,1.71,-14.76,-20.91,-73.50,29.40,-7.05,35.27,119.88,
06/01/2021,01:10:10.54,295.90,-773.44,91.31,5.00,-15.30,-26.22,-73.50,29.40,-7.05,35.55,119.88,
06/01/2021,01:10:10.55,62.50,-872.07,14.65,11.89,7.62,-24.09,-73.80,28.50,-6.75,35.22,119.87,
06/01/2021,01:10:10.56,-1.95,-880.86,-26.37,16.28,14.63,-17.62,-73.80,28.50,-6.75,35.07,119.87,
06/01/2021,01:10:10.57,-93.75,-926.76,-41.50,15.30,26.22,-15.73,-73.80,28.50,-6.75,35.60,119.88,
06/01/2021,01:10:10.57,-139.65,-972.66,-55.18,19.15,35.30,-7.13,-73.65,29.10,-7.65,35.36,119.88,
06/01/2021,01:10:10.58,-177.73,-1008.79,-56.15,18.54,40.24,-1.77,-73.65,29.10,-7.65,35.41,119.88,
06/01/2021,01:10:10.59,-163.57,-1091.31,16.11,22.13,46.52,15.73,-74.40,29.55,-7.20,35.36,119.87,
06/01/2021,01:10:10.60,-150.39,-1103.03,30.27,24.33,46.04,20.24,-74.40,29.55,-7.20,35.36,119.88,
06/01/2021,01:10:10.61,-109.86,-1092.77,53.71,24.57,45.67,27.80,-73.50,29.70,-5.55,35.22,119.88,
06/01/2021,01:10:10.61,-71.29,-1094.73,50.78,22.20,50.18,24.27,-73.20,28.80,-5.85,35.17,119.88,
06/01/2021,01:10:10.62,-45.90,-1081.05,37.60,23.11,53.96,26.95,-73.20,28.80,-5.85,35.36,119.88,
06/01/2021,01:10:10.63,58.59,-1047.85,-12.21,20.79,60.00,21.83,-73.65,29.85,-5.85,35.36,119.88,
06/01/2021,01:10:10.64,73.73,-1036.13,-33.20,17.13,61.52,19.39,-73.65,29.85,-5.85,35.46,119.88,
06/01/2021,01:10:10.64,78.61,-1031.74,-78.12,17.13,61.89,19.45,-74.70,28.35,-3.90,35.27,119.88,
06/01/2021,01:10:10.65,109.86,-1001.46,-111.33,13.23,61.95,13.41,-74.70,28.35,-3.90,35.03,119.88,
06/01/2021,01:10:10.66,116.70,-997.56,-104.49,10.73,61.77,8.17,-74.85,29.70,-4.20,35.27,119.88,
06/01/2021,01:10:10.66,120.61,-999.51,-128.91,10.49,60.24,7.01,-74.85,28.95,-2.25,35.27,119.88,
06/01/2021,01:10:10.68,128.42,-966.80,-111.82,8.60,57.07,-1.52,-76.05,27.75,-0.90,35.55,119.88,
06/01/2021,01:10:10.68,125.00,-951.66,-97.17,6.95,55.43,3.29,-76.65,29.55,-0.30,35.27,119.88,
06/01/2021,01:10:10.69,121.09,-946.78,-106.45,8.29,52.93,4.94,-76.65,29.55,-0.30,35.55,119.88,
06/01/2021,01:10:10.69,102.05,-919.92,-83.50,8.35,48.29,0.67,-74.55,28.95,-1.50,35.55,119.88,
06/01/2021,01:10:10.70,106.93,-917.48,-75.20,4.15,48.48,1.40,-74.55,28.95,-1.50,35.46,119.88,
06/01/2021,01:10:10.72,115.72,-895.02,-55.18,0.98,40.30,3.96,-76.05,30.15,-0.15,35.17,119.88,
06/01/2021,01:10:10.72,110.84,-900.39,-48.34,2.38,42.74,4.45,-76.05,30.15,-0.15,35.27,119.88,
06/01/2021,01:10:10.73,128.91,-900.39,-48.83,3.05,38.72,7.87,-76.05,30.15,-0.15,35.36,119.88,
06/01/2021,01:10:10.73,127.44,-900.39,-29.30,2.20,41.52,5.98,-74.70,28.80,0.30,35.36,119.88,
06/01/2021,01:10:10.74,121.58,-894.04,-60.06,2.74,37.93,4.57,-74.70,28.80,0.30,35.36,119.88,
06/01/2021,01:10:10.75,141.60,-914.06,-90.33,0.85,44.63,5.12,-76.05,29.40,1.50,35.55,119.88,
06/01/2021,01:10:10.76,166.50,-925.29,-98.14,2.93,46.16,7.26,-76.05,29.40,1.50,35.17,119.88,
06/01/2021,01:10:10.77,164.55,-919.92,-107.91,3.41,49.57,4.27,-74.85,28.50,1.95,35.17,119.88,
06/01/2021,01:10:10.77,149.41,-920.41,-122.07,4.33,51.83,2.38,-74.85,28.50,1.95,35.36,119.88,
06/01/2021,01:10:10.78,158.69,-943.36,-123.54,4.57,51.40,4.33,-74.70,30.30,2.10,35.36,119.88,
06/01/2021,01:10:10.78,147.95,-928.71,-125.00,-0.18,53.11,3.54,-75.90,28.80,2.55,35.27,119.88,
06/01/2021,01:10:10.80,146.00,-940.92,-131.35,-1.71,53.54,3.11,-75.90,28.80,2.55,35.27,119.88,
06/01/2021,01:10:10.80,157.71,-953.61,-116.70,-1.46,51.95,1.95,-76.80,27.75,4.80,35.36,119.88,
06/01/2021,01:10:10.81,146.00,-953.12,-128.42,-2.44,48.17,3.35,-76.80,27.75,4.80,35.55,119.88,
06/01/2021,01:10:10.82,161.13,-955.08,-122.56,-2.56,47.38,3.41,-76.80,27.75,4.80,35.55,119.88,
06/01/2021,01:10:10.82,174.32,-960.45,-128.42,-3.96,47.62,5.06,-76.80,27.75,4.80,35.70,119.88,
06/01/2021,01:10:10.84,184.08,-968.75,-122.07,-4.76,37.32,5.55,-74.70,28.35,7.20,35.55,119.88,
06/01/2021,01:10:10.84,181.15,-957.52,-127.93,-7.62,38.48,4.57,-75.45,28.35,7.20,35.46,119.88,
06/01/2021,01:10:10.88,189.45,-963.38,-128.42,-4.94,34.70,10.12,-73.65,28.05,8.70,35.36,119.88,
06/01/2021,01:10:10.89,180.66,-971.19,-144.53,-5.79,36.71,11.95,-73.65,28.05,8.70,35.22,119.87,
06/01/2021,01:10:10.90,189.94,-992.68,-150.88,-6.40,36.10,13.41,-75.15,28.35,9.45,35.27,119.87,
06/01/2021,01:10:10.91,191.41,-1037.11,-164.55,-10.24,32.93,8.54,-75.15,28.35,9.45,35.36,119.87,
06/01/2021,01:10:10.92,185.55,-1045.41,-174.80,-11.83,33.96,9.57,-73.80,30.15,11.85,35.22,119.87,
06/01/2021,01:10:10.92,190.43,-1068.36,-183.59,-14.63,35.30,7.87,-73.80,30.15,11.85,35.46,119.87,
06/01/2021,01:10:10.93,191.89,-1083.98,-185.55,-15.49,34.70,5.55,-71.40,29.55,9.00,35.07,119.87,
06/01/2021,01:10:10.94,182.13,-1098.63,-196.78,-16.10,31.89,9.70,-71.40,30.75,10.50,35.36,119.88,
06/01/2021,01:10:10.94,190.92,-1115.23,-215.82,-17.62,32.93,7.38,-71.40,30.75,10.50,35.27,119.88,
06/01/2021,01:10:10.96,203.61,-1139.16,-229.98,-20.30,31.59,2.62,-72.00,29.40,11.40,35.22,119.87,
06/01/2021,01:10:10.96,214.36,-1147.95,-238.28,-22.38,27.62,4.33,-72.00,29.40,11.40,35.22,119.87,
06/01/2021,01:10:10.97,203.12,-1147.46,-239.75,-25.18,26.77,-2.32,-71.25,30.15,12.60,35.07,119.88,
06/01/2021,01:10:10.98,196.29,-1155.27,-274.90,-25.18,27.87,-1.04,-71.25,30.15,12.60,35.17,119.88,
06/01/2021,01:10:10.98,179.20,-1171.88,-283.69,-25.85,30.00,-4.70,-71.25,30.15,12.60,35.07,119.88,
06/01/2021,01:10:11.00,141.11,-1250.49,-247.07,-29.82,28.84,-5.55,-70.35,29.10,14.25,35.55,119.87,
06/01/2021,01:10:11.00,161.13,-1302.73,-194.34,-31.95,26.52,-5.06,-70.35,29.10,14.25,35.22,119.88,
06/01/2021,01:10:11.01,167.48,-1298.83,-89.84,-33.11,23.78,-6.34,-69.75,30.45,13.65,35.36,119.88,
06/01/2021,01:10:11.02,184.57,-1278.81,9.28,-30.18,22.68,-10.98,-69.75,30.45,13.65,35.55,119.88,
06/01/2021,01:10:11.02,195.31,-1228.52,93.26,-23.48,14.27,-8.29,-68.55,29.70,12.90,35.07,119.88,
06/01/2021,01:10:11.04,201.66,-1042.48,175.29,-0.55,0.18,-16.52,-70.35,29.10,17.10,35.36,119.88,
06/01/2021,01:10:11.04,186.52,-1006.35,136.23,7.44,-4.94,-12.50,-70.35,29.10,17.10,35.07,119.88,
06/01/2021,01:10:11.05,177.25,-979.00,75.68,11.65,-8.05,-16.89,-67.35,29.85,14.85,35.17,119.88,
06/01/2021,01:10:11.06,146.97,-973.63,-11.72,15.37,-5.43,-16.77,-67.35,29.85,14.85,35.22,119.88,
06/01/2021,01:10:11.06,126.46,-977.05,-64.94,12.74,-3.78,-19.15,-68.55,29.70,15.45,35.27,119.88,
06/01/2021,01:10:11.08,63.48,-998.05,-168.95,10.55,5.73,-18.41,-68.55,29.70,15.45,35.46,119.88,
06/01/2021,01:10:11.08,6.84,-1018.55,-187.50,6.28,7.74,-16.40,-70.35,29.55,17.85,35.36,119.88,
06/01/2021,01:10:11.09,-30.76,-1019.04,-173.83,4.02,7.99,-15.73,-70.35,29.55,17.85,35.22,119.88,
06/01/2021,01:10:11.09,-58.11,-1008.79,-130.37,3.11,6.89,-17.13,-70.35,29.55,17.85,35.22,119.88,
06/01/2021,01:10:11.10,-98.14,-1004.88,-125.00,-3.05,7.93,-16.04,-67.50,31.20,15.45,35.07,119.88,
06/01/2021,01:10:11.12,-232.91,-965.82,104.00,-1.34,7.26,-10.79,-70.05,30.15,20.55,34.93,119.87,
06/01/2021,01:10:11.13,-259.28,-964.36,155.76,3.35,11.04,-5.24,-67.95,32.40,18.75,35.36,119.88,
06/01/2021,01:10:11.14,-291.50,-951.66,174.32,7.68,11.95,-3.11,-67.95,32.40,18.75,35.36,119.88,
06/01/2021,01:10:11.14,-300.29,-937.99,173.34,12.38,16.59,2.13,-66.90,33.75,16.80,35.17,119.88,
06/01/2021,01:10:11.15,-318.85,-941.89,160.64,17.80,22.26,4.82,-66.90,33.75,16.80,35.27,119.88,
06/01/2021,01:10:11.15,-310.55,-940.43,135.74,19.63,27.87,6.89,-66.45,31.95,16.95,35.22,119.88,
06/01/2021,01:10:11.17,-177.73,-974.61,56.64,25.18,35.12,15.55,-66.45,31.65,17.70,35.36,119.88,
06/01/2021,01:10:11.18,-123.54,-983.89,13.18,19.76,33.96,15.98,-66.45,31.65,17.70,35.36,119.88,
06/01/2021,01:10:11.18,-69.34,-999.02,-24.41,15.49,30.98,16.28,-66.45,31.65,17.70,35.22,119.88,
06/01/2021,01:10:11.19,-16.60,-1013.67,-48.83,9.70,28.78,11.34,-66.45,31.65,17.70,35.36,119.88,
06/01/2021,01:10:11.19,39.06,-1012.21,-65.43,6.10,23.90,12.80,-64.80,33.00,18.60,35.55,119.88,
06/01/2021,01:10:11.21,143.55,-1025.88,-66.89,-1.65,12.87,3.78,-64.05,33.00,18.15,35.17,119.88,
06/01/2021,01:10:11.21,150.88,-1032.71,-43.46,-5.24,9.88,0.12,-66.75,33.15,20.25,35.36,119.88,
06/01/2021,01:10:11.22,159.18,-1034.67,-38.09,-7.38,8.96,-1.46,-64.20,33.15,16.50,35.46,119.88,
06/01/2021,01:10:11.23,186.52,-1013.67,-26.86,-3.23,5.06,-5.61,-64.20,33.15,16.50,35.36,119.88,
06/01/2021,01:10:11.23,187.99,-1010.74,-32.71,-6.59,0.43,-8.41,-63.75,33.15,18.45,35.27,119.88,
06/01/2021,01:10:11.25,186.04,-982.42,-25.39,-2.62,-2.07,-13.35,-63.75,33.15,19.05,35.27,119.88,
06/01/2021,01:10:11.25,139.65,-969.73,-13.67,1.10,-3.29,-11.28,-63.75,33.15,19.05,35.46,119.88,
06/01/2021,01:10:11.26,132.81,-950.68,-8.30,2.13,-5.12,-15.12,-63.75,33.15,19.05,35.22,119.88,
06/01/2021,01:10:11.27,107.91,-936.52,-18.55,2.87,-5.67,-13.05,-63.30,33.75,18.60,35.22,119.88,
06/01/2021,01:10:11.27,90.82,-918.46,-21.00,9.21,-5.12,-11.71,-63.30,33.75,18.60,35.36,119.88,
06/01/2021,01:10:11.28,72.27,-894.53,-17.58,11.65,-6.65,-8.35,-63.30,33.75,18.60,35.55,119.88,
06/01/2021,01:10:11.29,41.02,-879.88,-49.80,15.24,-7.68,-4.88,-66.45,33.90,18.75,35.41,119.88,
06/01/2021,01:10:11.30,28.32,-854.98,-62.01,14.15,-11.59,-2.01,-66.45,33.90,18.75,35.22,119.88,
06/01/2021,01:10:11.30,33.69,-857.42,-71.78,15.55,-13.66,-1.71,-64.80,34.95,17.10,35.60,119.88,
06/01/2021,01:10:11.31,42.48,-854.49,-89.36,15.00,-17.50,0.00,-64.80,34.95,17.10,35.55,119.88,
06/01/2021,01:10:11.32,33.20,-832.52,-99.12,12.93,-16.77,1.95,-64.80,34.20,15.60,35.17,119.88,
06/01/2021,01:10:11.33,56.15,-840.33,-89.36,13.90,-25.98,-0.30,-63.30,34.50,17.10,35.55,119.88,
06/01/2021,01:10:11.34,52.25,-843.26,-92.77,13.90,-27.07,2.56,-65.10,33.30,18.90,35.22,119.88,
06/01/2021,01:10:11.34,58.11,-866.21,-80.08,14.15,-32.01,2.56,-65.10,33.30,18.90,35.22,119.88,
06/01/2021,01:10:11.35,41.99,-885.25,-80.57,10.85,-31.16,1.40,-65.10,33.30,18.90,35.22,119.88,
06/01/2021,01:10:11.40,5.86,-920.41,-83.50,15.49,-43.66,2.62,-65.40,35.25,17.10,35.36,119.87,
06/01/2021,01:10:11.42,33.20,-951.66,-123.05,14.76,-49.94,2.26,-65.40,35.70,16.05,35.22,119.87,
06/01/2021,01:10:11.43,38.57,-973.63,-127.93,10.61,-48.96,0.06,-65.40,35.70,16.05,35.22,119.87,
06/01/2021,01:10:11.44,31.74,-978.03,-124.51,10.55,-52.07,2.26,-65.40,35.70,16.05,35.55,119.87,
06/01/2021,01:10:11.44,43.46,-973.63,-134.77,7.99,-51.22,0.12,-65.40,35.70,16.05,35.17,119.87,
06/01/2021,01:10:11.45,42.97,-967.77,-135.74,4.94,-54.70,-4.51,-64.05,35.70,14.55,35.36,119.87,
06/01/2021,01:10:11.45,54.20,-964.84,-138.18,5.24,-55.43,-1.71,-64.50,35.85,13.65,35.27,119.87,
06/01/2021,01:10:11.47,99.12,-973.63,-154.79,3.72,-61.65,-2.26,-63.45,35.55,13.20,35.55,119.87,
06/01/2021,01:10:11.48,97.17,-993.16,-171.39,3.96,-64.39,-6.77,-66.75,37.35,15.15,35.41,119.87,
06/01/2021,01:10:11.48,127.93,-990.72,-174.80,0.55,-65.85,-5.30,-66.75,37.35,15.15,35.22,119.87,
06/01/2021,01:10:11.49,126.95,-991.21,-169.43,-3.48,-70.79,-9.02,-64.35,35.25,13.50,35.22,119.87,
06/01/2021,01:10:11.49,115.72,-990.72,-159.18,-2.13,-73.05,-7.68,-64.35,35.25,13.50,35.22,119.87,
06/01/2021,01:10:11.51,87.89,-1003.91,-142.09,-4.57,-76.10,-11.89,-66.15,36.00,11.25,35.46,119.87,
06/01/2021,01:10:11.51,68.85,-1025.88,-141.60,-5.24,-73.29,-10.18,-66.75,35.55,12.90,35.27,119.87,
06/01/2021,01:10:11.52,45.90,-1038.57,-158.69,-3.60,-72.38,-10.98,-66.75,35.55,12.90,35.36,119.87,
06/01/2021,01:10:11.53,6.84,-1052.73,-173.34,-6.65,-73.23,-7.87,-66.75,35.55,12.90,35.36,119.87,
06/01/2021,01:10:11.53,-21.48,-1095.21,-165.53,-6.71,-72.26,-6.40,-66.75,35.55,12.90,35.27,119.87,
06/01/2021,01:10:11.55,-66.89,-1153.81,-202.15,-8.41,-66.46,-2.13,-65.70,36.60,11.85,35.17,119.87,
06/01/2021,01:10:11.55,-84.47,-1155.76,-199.71,-11.46,-68.11,1.40,-66.60,36.45,11.25,35.27,119.87,
06/01/2021,01:10:11.56,-68.85,-1185.55,-219.73,-11.77,-67.07,1.65,-66.60,36.45,11.25,35.22,119.87,
06/01/2021,01:10:11.57,-62.50,-1175.29,-247.56,-10.73,-68.78,5.24,-63.45,37.05,10.65,35.41,119.87,
06/01/2021,01:10:11.57,-46.88,-1176.27,-280.27,-16.83,-71.10,3.96,-63.45,37.05,10.65,35.36,119.87,
06/01/2021,01:10:11.59,59.08,-1229.49,-380.37,-31.83,-77.32,3.23,-66.00,35.85,10.05,35.55,119.87,
06/01/2021,01:10:11.59,77.15,-1286.62,-405.76,-42.50,-81.34,0.06,-66.00,35.85,10.05,35.36,119.87,
06/01/2021,01:10:11.60,136.72,-1356.93,-356.93,-49.09,-85.00,1.10,-66.00,35.85,10.05,35.27,119.87,
06/01/2021,01:10:11.61,173.83,-1414.06,-267.58,-56.95,-93.17,2.74,-65.85,34.95,6.90,35.22,119.87,
06/01/2021,01:10:11.61,182.13,-1427.73,-133.30,-56.28,-94.63,-0.37,-65.85,34.95,6.90,35.36,119.87,
06/01/2021,01:10:11.63,104.49,-1305.18,193.36,-33.48,-90.12,-5.12,-66.90,33.00,7.95,35.46,119.87,
06/01/2021,01:10:11.63,55.18,-1232.42,222.17,-16.71,-84.21,-3.96,-66.90,33.00,7.95,35.60,119.87,
06/01/2021,01:10:11.64,20.02,-1174.32,232.42,1.04,-73.60,-2.07,-66.60,36.00,6.45,35.22,119.87,
06/01/2021,01:10:11.65,4.39,-1152.34,197.27,10.79,-66.65,1.89,-66.60,36.00,6.45,35.36,119.87,
06/01/2021,01:10:11.65,0.00,-1151.37,169.43,15.98,-58.96,0.00,-65.85,35.25,3.15,35.36,119.87,
06/01/2021,01:10:11.67,8.30,-1092.77,81.54,17.32,-51.10,8.48,-66.15,33.30,5.10,35.27,119.87,
06/01/2021,01:10:11.67,31.25,-1036.13,60.06,11.22,-50.61,7.80,-66.15,33.30,5.10,35.36,119.87,
06/01/2021,01:10:11.68,44.92,-992.68,38.57,7.26,-51.34,11.10,-65.70,34.35,4.20,35.36,119.87,
06/01/2021,01:10:11.68,75.20,-952.15,45.90,6.10,-51.71,13.90,-65.70,34.35,4.20,35.27,119.87,
06/01/2021,01:10:11.69,113.28,-908.69,43.46,2.68,-59.39,12.62,-65.70,34.35,4.20,35.36,119.87,
06/01/2021,01:10:11.70,190.92,-883.79,48.34,-2.38,-68.78,10.79,-65.70,34.35,4.20,35.36,119.87,
06/01/2021,01:10:11.71,332.52,-820.31,80.57,-3.96,-92.26,6.71,-65.40,33.75,3.15,35.55,119.87,
06/01/2021,01:10:11.72,375.98,-830.57,90.33,-3.23,-98.48,1.83,-66.60,33.75,3.15,35.60,119.87,
06/01/2021,01:10:11.72,429.69,-824.22,105.96,-5.85,-102.74,-2.93,-66.60,33.75,3.15,35.41,119.87,
06/01/2021,01:10:11.73,426.27,-844.73,108.89,-4.21,-105.12,-7.68,-65.25,33.90,3.75,35.27,119.87,
06/01/2021,01:10:11.73,403.32,-851.07,100.10,0.85,-104.39,-12.07,-65.25,33.90,3.75,35.60,119.88,
06/01/2021,01:10:11.75,260.25,-887.21,37.11,9.02,-96.34,-17.38,-67.35,32.25,0.30,35.07,119.87,
06/01/2021,01:10:11.76,208.50,-930.66,31.74,11.04,-93.35,-22.01,-67.35,32.25,0.30,35.75,119.87,
06/01/2021,01:10:11.76,160.64,-960.94,1.46,13.60,-88.84,-21.10,-65.10,33.00,1.05,35.55,119.88,
06/01/2021,01:10:11.77,122.07,-990.23,-18.55,13.60,-84.45,-18.29,-65.85,33.30,1.05,35.36,119.88,
06/01/2021,01:10:11.77,70.31,-1024.90,-29.79,11.65,-81.22,-15.37,-65.85,33.30,-0.30,35.46,119.88,
06/01/2021,01:10:11.79,-21.00,-1033.20,-8.30,17.20,-82.20,-3.78,-66.00,32.85,0.15,35.36,119.87,
06/01/2021,01:10:11.80,-38.09,-1026.86,1.95,15.43,-81.77,-1.28,-66.00,32.85,0.15,35.17,119.88,
06/01/2021,01:10:11.80,-77.15,-1025.88,6.84,15.49,-80.12,2.93,-66.00,32.85,0.15,35.17,119.88,
06/01/2021,01:10:11.81,-93.75,-1029.79,19.04,13.66,-74.63,6.71,-66.00,32.85,0.15,35.22,119.88,
06/01/2021,01:10:11.81,-103.03,-1011.23,22.46,11.89,-69.70,6.28,-64.80,34.20,-1.80,35.60,119.88,
06/01/2021,01:10:11.82,-108.89,-996.09,-4.88,12.87,-66.46,11.40,-64.05,33.30,-1.80,35.27,119.88,
06/01/2021,01:10:11.83,-88.38,-957.03,-32.23,10.43,-53.35,15.24,-66.75,31.95,-1.50,35.07,119.88,
06/01/2021,01:10:11.84,-89.84,-927.73,-56.64,7.68,-51.65,14.63,-65.70,32.40,-1.95,35.41,119.88,
06/01/2021,01:10:11.85,-50.29,-926.27,-75.20,5.98,-51.10,13.17,-65.70,32.40,-1.95,35.36,119.88,
06/01/2021,01:10:11.85,-46.88,-904.79,-80.08,6.71,-51.16,12.38,-64.50,33.60,-2.25,35.27,119.88,
06/01/2021,01:10:11.86,-7.81,-894.53,-102.05,5.98,-48.78,9.27,-64.50,33.60,-2.25,35.07,119.88,
06/01/2021,01:10:11.90,125.00,-839.84,-115.23,6.22,-36.83,-2.38,-65.85,31.80,-2.55,35.27,119.87,
06/01/2021,01:10:11.92,133.30,-845.70,-114.75,7.20,-41.22,-3.72,-65.85,32.55,-2.10,35.36,119.87,
06/01/2021,01:10:11.92,104.98,-845.21,-127.44,7.32,-41.59,-2.93,-65.85,31.50,-3.15,35.41,119.87,
06/01/2021,01:10:11.93,90.33,-868.65,-125.98,7.56,-40.98,-1.52,-65.85,31.50,-3.15,35.36,119.87,
06/01/2021,01:10:11.93,76.17,-865.23,-122.07,4.51,-38.84,-2.87,-64.80,31.80,-5.40,35.07,119.87,
06/01/2021,01:10:11.95,44.43,-894.53,-143.55,5.24,-32.93,-0.85,-64.80,32.55,-6.15,35.55,119.87,
06/01/2021,01:10:11.95,26.37,-909.67,-145.02,2.56,-29.51,-1.65,-67.50,30.90,-3.75,35.70,119.87,
06/01/2021,01:10:11.96,15.14,-914.06,-139.65,3.23,-27.62,1.52,-67.50,30.90,-3.75,35.36,119.87,
06/01/2021,01:10:11.97,6.84,-898.93,-158.69,6.10,-26.77,1.83,-67.50,30.90,-3.75,35.36,119.87,
06/01/2021,01:10:11.97,7.32,-904.30,-154.30,3.17,-22.87,0.55,-64.20,33.15,-6.30,35.27,119.87,
06/01/2021,01:10:11.98,16.11,-913.57,-159.67,5.00,-18.11,2.62,-64.20,33.15,-6.30,35.27,119.87,
06/01/2021,01:10:11.99,12.21,-910.16,-163.57,5.24,-13.41,4.57,-66.00,30.90,-6.75,35.22,119.87,
06/01/2021,01:10:12.00,25.88,-906.74,-167.48,5.43,-11.71,6.77,-66.00,30.90,-6.75,35.55,119.87,
06/01/2021,01:10:12.01,39.55,-896.97,-170.90,5.67,-11.16,6.89,-65.40,33.00,-5.40,35.55,119.87,
06/01/2021,01:10:12.01,71.29,-889.65,-172.85,5.49,-9.76,6.89,-65.40,33.00,-5.40,35.07,119.87,
06/01/2021,01:10:12.02,89.84,-895.02,-190.43,4.76,-7.68,9.63,-66.00,31.95,-6.30,35.36,119.87,
06/01/2021,01:10:12.03,79.59,-917.48,-207.03,-1.52,-7.38,10.24,-66.60,29.85,-5.40,35.46,119.87,
06/01/2021,01:10:12.04,71.78,-931.64,-221.68,0.00,-6.52,13.54,-66.60,29.85,-5.40,35.07,119.87,
06/01/2021,01:10:12.04,78.12,-933.11,-189.94,-1.22,-7.32,13.35,-64.80,31.05,-6.15,35.46,119.87,
06/01/2021,01:10:12.05,71.78,-942.38,-205.57,-0.85,-5.73,15.91,-64.80,31.05,-6.15,35.36,119.87,
06/01/2021,01:10:12.06,63.48,-957.03,-202.15,-1.40,-3.84,11.83,-64.80,31.05,-6.15,35.17,119.87,
06/01/2021,01:10:12.07,45.90,-1007.81,-226.07,-4.63,-4.09,11.04,-64.80,31.80,-6.15,35.07,119.87,
06/01/2021,01:10:12.08,27.83,-1033.20,-236.82,-5.85,-1.71,12.26,-64.80,31.80,-6.15,35.60,119.87,
06/01/2021,01:10:12.08,13.18,-1033.69,-250.98,-7.20,-0.98,15.12,-65.10,31.50,-6.90,35.36,119.87,
06/01/2021,01:10:12.09,-0.49,-1074.71,-250.49,-9.27,2.44,12.87,-65.10,31.50,-6.90,35.55,119.87,
06/01/2021,01:10:12.09,-1.95,-1084.47,-242.68,-10.37,2.99,15.43,-65.10,31.50,-6.15,35.36,119.87,
06/01/2021,01:10:12.10,5.37,-1118.16,-248.05,-13.54,3.48,16.34,-65.10,31.50,-6.15,35.17,119.87,
06/01/2021,01:10:12.12,11.23,-1155.76,-278.32,-15.49,10.91,17.50,-66.15,30.75,-4.65,35.07,119.87,
06/01/2021,01:10:12.12,-10.25,-1180.66,-305.66,-18.23,14.57,17.44,-66.15,30.75,-4.65,35.55,119.87,
06/01/2021,01:10:12.13,-8.30,-1192.87,-341.31,-16.40,17.13,20.85,-66.45,31.95,-6.00,35.55,119.87,
06/01/2021,01:10:12.13,-27.83,-1202.64,-358.89,-21.16,22.56,19.63,-65.10,30.30,-7.65,35.55,119.87,
06/01/2021,01:10:12.14,-47.36,-1219.24,-401.86,-21.52,23.41,22.07,-65.10,30.30,-7.65,35.55,119.88,
06/01/2021,01:10:12.15,-115.23,-1318.36,-429.69,-33.72,28.66,20.91,-65.40,28.80,-5.85,35.22,119.87,
06/01/2021,01:10:12.16,-114.26,-1386.72,-382.32,-37.62,29.02,22.80,-65.40,28.80,-5.85,35.36,119.87,
06/01/2021,01:10:12.17,-82.03,-1451.17,-279.30,-40.98,27.68,19.45,-65.40,28.80,-5.85,35.55,119.87,
06/01/2021,01:10:12.17,-41.02,-1500.98,-182.62,-41.77,23.54,13.96,-65.40,28.80,-5.85,35.22,119.88,
06/01/2021,01:10:12.18,24.90,-1516.11,-82.52,-40.98,17.80,12.99,-65.25,29.40,-7.80,35.27,119.88,
06/01/2021,01:10:12.19,221.68,-1364.26,98.14,-38.29,0.98,5.98,-65.85,29.55,-6.15,35.07,119.87,
06/01/2021,01:10:12.20,246.09,-1266.60,113.28,-30.30,-2.56,2.20,-65.85,29.55,-6.15,35.17,119.87,
06/01/2021,01:10:12.21,257.81,-1183.11,103.52,-21.77,-5.12,0.00,-65.85,28.35,-7.95,35.36,119.88,
06/01/2021,01:10:12.21,222.17,-1105.47,88.87,-8.72,-8.11,-4.70,-65.85,28.35,-7.95,35.55,119.88,
06/01/2021,01:10:12.22,183.59,-1047.36,41.99,4.15,-7.38,-6.65,-64.95,29.70,-8.10,35.17,119.88,
06/01/2021,01:10:12.23,46.88,-978.03,-27.83,17.74,-2.99,-11.16,-64.80,29.10,-7.95,35.22,119.87,
06/01/2021,01:10:12.24,22.46,-952.64,-43.95,21.04,4.21,-9.70,-64.80,29.10,-7.95,35.22,119.88,
06/01/2021,01:10:12.25,-28.32,-926.76,-47.36,18.54,7.99,-10.06,-64.80,30.75,-7.95,35.55,119.88,
06/01/2021,01:10:12.25,-63.96,-880.37,-53.71,12.93,17.32,-8.35,-64.80,30.75,-7.95,35.27,119.88,
06/01/2021,01:10:12.26,-115.72,-862.79,-49.32,5.24,22.26,-8.66,-64.80,30.75,-8.70,35.55,119.88,
06/01/2021,01:10:12.27,-208.50,-796.39,-30.27,-10.24,34.51,-1.40,-63.75,30.15,-8.10,35.22,119.88,
06/01/2021,01:10:12.28,-224.12,-792.97,-21.97,-14.21,35.73,-1.04,-65.25,29.40,-7.35,35.46,119.88,
06/01/2021,01:10:12.28,-229.49,-789.55,20.51,-18.05,37.99,-3.23,-65.25,29.40,-7.35,35.27,119.88,
06/01/2021,01:10:12.29,-246.58,-816.89,25.39,-16.65,36.22,0.91,-64.80,29.55,-9.75,35.46,119.88,
06/01/2021,01:10:12.30,-232.91,-817.38,49.80,-13.23,35.73,0.12,-65.40,29.85,-10.20,35.55,119.88,
06/01/2021,01:10:12.30,-200.20,-834.47,57.62,-10.91,35.67,0.30,-65.40,29.85,-10.20,35.27,119.88,
06/01/2021,01:10:12.32,-131.84,-937.01,77.64,0.00,32.38,-0.98,-65.40,28.35,-6.15,35.07,119.88,
06/01/2021,01:10:12.32,-104.49,-961.43,56.15,2.01,29.21,1.46,-65.40,28.35,-6.15,35.55,119.88,
06/01/2021,01:10:12.33,-32.23,-992.19,43.46,0.85,25.55,-1.16,-65.40,28.35,-6.15,35.27,119.88,
06/01/2021,01:10:12.34,-10.25,-1050.78,18.55,2.56,18.23,-0.67,-65.40,28.35,-6.15,35.55,119.88,
06/01/2021,01:10:12.34,29.30,-1072.75,15.62,1.77,10.61,-3.35,-63.75,29.40,-10.35,35.46,119.88,
06/01/2021,01:10:12.36,138.18,-1094.73,-21.97,-6.77,-6.16,-11.10,-64.35,28.35,-7.65,35.36,119.88,
06/01/2021,01:10:12.36,138.67,-1075.20,-24.90,-8.54,-10.98,-17.56,-64.35,28.35,-7.65,35.46,119.88,
06/01/2021,01:10:12.37,169.43,-1062.01,-34.67,-6.10,-16.04,-17.20,-64.50,29.40,-8.85,35.27,119.88,
06/01/2021,01:10:12.37,199.22,-1063.48,-27.34,-6.83,-21.16,-19.27,-64.50,29.40,-8.85,35.46,119.88,
06/01/2021,01:10:12.41,99.61,-936.52,-58.11,3.41,-21.16,-18.66,-66.60,29.55,-9.45,35.22,119.87,
06/01/2021,01:10:12.43,5.37,-884.28,-111.82,15.49,-17.13,-18.96,-64.95,30.90,-8.85,35.07,119.87,
06/01/2021,01:10:12.44,0.49,-867.68,-111.82,18.96,-18.48,-14.39,-64.95,30.90,-8.85,35.22,119.87,
06/01/2021,01:10:12.44,-14.65,-885.74,-130.37,20.49,-19.57,-9.82,-65.70,28.95,-8.10,35.27,119.87,
06/01/2021,01:10:12.45,-43.95,-891.11,-121.58,20.49,-20.06,-13.05,-64.50,30.45,-10.35,35.27,119.87,
06/01/2021,01:10:12.46,-66.41,-878.42,-142.58,20.43,-23.23,-13.05,-64.50,30.45,-10.35,35.55,119.87,
06/01/2021,01:10:12.47,-82.03,-860.84,-127.44,16.52,-20.49,-11.89,-65.40,29.85,-10.50,35.07,119.87,
06/01/2021,01:10:12.48,-93.75,-828.12,-121.09,16.71,-21.95,-9.82,-65.40,29.85,-10.50,35.27,119.87,
06/01/2021,01:10:12.48,-83.98,-831.54,-125.00,14.33,-20.91,-9.57,-64.05,29.55,-10.20,35.07,119.87,
06/01/2021,01:10:12.49,-94.24,-837.89,-107.42,11.34,-24.02,-10.49,-64.05,29.55,-10.20,34.93,119.87,
06/01/2021,01:10:12.50,-77.15,-824.71,-112.30,12.68,-21.40,-9.70,-64.05,29.55,-10.20,34.88,119.87,
06/01/2021,01:10:12.51,-70.80,-868.65,-117.68,16.04,-28.84,-3.23,-63.75,30.15,-10.65,35.36,119.87,
06/01/2021,01:10:12.52,-75.20,-891.60,-104.98,15.43,-28.41,-9.45,-63.75,30.15,-10.65,35.22,119.87,
06/01/2021,01:10:12.52,-80.08,-905.76,-112.79,15.43,-30.79,-5.73,-64.05,31.05,-10.20,35.36,119.87,
06/01/2021,01:10:12.53,-56.64,-921.39,-114.26,15.30,-32.50,-6.46,-64.05,31.05,-10.20,35.27,119.87,
06/01/2021,01:10:12.53,-57.13,-929.69,-121.09,16.89,-34.94,-4.88,-62.55,31.80,-10.50,35.60,119.87,
06/01/2021,01:10:12.55,-49.80,-960.45,-151.37,14.45,-38.41,-10.00,-64.05,28.80,-9.00,35.55,119.87,
06/01/2021,01:10:12.56,-49.32,-952.64,-161.13,15.00,-37.32,-14.51,-64.05,28.80,-9.00,35.46,119.87,
06/01/2021,01:10:12.56,-46.88,-956.05,-167.97,12.07,-38.05,-13.54,-64.05,31.05,-12.30,35.07,119.87,
06/01/2021,01:10:12.57,-68.36,-966.80,-177.73,12.68,-38.17,-12.80,-64.05,31.05,-12.30,35.46,119.87,
06/01/2021,01:10:12.57,-51.27,-983.40,-194.82,11.22,-39.51,-11.46,-64.50,29.70,-10.65,35.55,119.87,
06/01/2021,01:10:12.58,-64.45,-973.14,-202.64,8.17,-35.73,-12.87,-64.50,29.70,-10.65,35.55,119.87,
06/01/2021,01:10:12.60,-91.31,-958.98,-220.70,5.79,-32.93,-11.10,-65.10,29.10,-10.95,35.17,119.87,
06/01/2021,01:10:12.60,-114.26,-966.80,-244.14,7.62,-32.68,-9.63,-65.10,29.10,-10.95,35.22,119.87,
06/01/2021,01:10:12.61,-110.35,-958.98,-241.70,3.48,-30.43,-10.18,-65.10,29.10,-10.95,35.22,119.87,
06/01/2021,01:10:12.61,-96.19,-969.24,-271.00,4.21,-31.16,-7.44,-63.60,30.75,-11.25,35.55,119.87,
06/01/2021,01:10:12.62,-85.45,-974.12,-271.48,2.99,-25.30,-4.51,-64.20,31.65,-13.65,35.07,119.87,
06/01/2021,01:10:12.64,-62.99,-981.93,-280.76,0.30,-27.26,-6.65,-63.45,28.20,-11.10,35.27,119.87,
06/01/2021,01:10:12.64,-65.43,-990.23,-256.84,-2.26,-28.90,-3.11,-64.05,29.55,-12.75,35.27,119.87,
06/01/2021,01:10:12.65,-48.34,-983.40,-261.23,-2.93,-27.50,-2.20,-64.05,29.55,-12.75,35.27,119.87,
06/01/2021,01:10:12.65,-39.55,-983.40,-243.16,-9.88,-26.34,-6.77,-64.05,31.05,-12.30,35.55,119.87,
06/01/2021,01:10:12.66,-38.09,-987.30,-254.39,-10.24,-26.83,-5.55,-64.05,31.05,-12.30,35.36,119.88,
06/01/2021,01:10:12.68,-22.95,-1008.30,-235.35,-12.07,-27.26,-8.60,-63.75,30.15,-12.60,35.36,119.87,
06/01/2021,01:10:12.68,-14.65,-1035.64,-218.75,-12.01,-30.91,-7.50,-66.60,30.30,-13.05,35.46,119.87,
06/01/2021,01:10:12.69,-28.81,-1033.20,-225.59,-17.07,-30.00,-10.67,-66.60,30.30,-13.05,35.55,119.87,
06/01/2021,01:10:12.69,-28.32,-1058.59,-233.89,-15.49,-31.89,-12.80,-66.60,30.30,-13.05,35.46,119.88,
06/01/2021,01:10:12.70,-41.50,-1058.59,-235.35,-18.05,-28.84,-10.00,-66.60,30.30,-13.05,35.55,119.88,
06/01/2021,01:10:12.72,-29.30,-1074.71,-267.09,-19.15,-30.30,-10.49,-64.95,31.95,-12.60,35.41,119.87,
06/01/2021,01:10:12.72,-23.44,-1066.41,-297.85,-19.63,-31.40,-13.48,-64.95,31.95,-12.60,35.27,119.87,
06/01/2021,01:10:12.73,-8.79,-1100.10,-327.64,-19.21,-32.62,-12.07,-65.10,31.80,-13.50,35.22,119.88,
06/01/2021,01:10:12.73,19.53,-1084.96,-348.63,-20.55,-37.62,-12.56,-62.85,32.55,-14.85,35.55,119.88,
06/01/2021,01:10:12.74,56.15,-1089.36,-374.02,-27.01,-36.52,-15.85,-62.85,32.55,-14.85,35.60,119.88,
06/01/2021,01:10:12.76,134.77,-1145.02,-456.54,-38.60,-45.49,-18.60,-64.35,29.85,-14.85,35.36,119.87,
06/01/2021,01:10:12.76,163.57,-1213.87,-456.05,-46.83,-51.40,-20.06,-64.35,29.85,-14.85,35.55,119.88,
06/01/2021,01:10:12.77,207.03,-1292.97,-411.13,-59.15,-54.15,-15.98,-64.35,29.85,-14.85,35.36,119.88,
06/01/2021,01:10:12.77,227.05,-1364.26,-331.54,-66.89,-56.52,-16.52,-62.25,31.95,-16.20,35.22,119.88,
06/01/2021,01:10:12.78,201.66,-1452.15,-251.46,-69.15,-62.07,-14.63,-62.25,31.95,-16.20,35.17,119.88,
06/01/2021,01:10:12.80,68.36,-1430.66,-11.23,-60.49,-55.91,-13.84,-63.75,32.85,-13.95,35.07,119.88,
06/01/2021,01:10:12.80,-21.97,-1334.96,56.15,-43.90,-44.33,-12.74,-63.75,32.85,-13.95,35.03,119.88,
06/01/2021,01:10:12.81,-89.36,-1233.89,114.75,-26.04,-29.51,-7.68,-62.55,33.75,-16.35,35.36,119.88,
06/01/2021,01:10:12.81,-136.23,-1152.34,143.55,-10.67,-14.82,-5.73,-62.55,33.75,-16.35,35.17,119.88,
06/01/2021,01:10:12.82,-157.71,-1087.40,168.95,4.70,-6.10,-2.38,-62.55,34.20,-15.60,34.93,119.88,
06/01/2021,01:10:12.83,-111.82,-1007.81,123.05,30.73,4.57,12.20,-63.45,32.40,-14.40,35.46,119.88,
06/01/2021,01:10:12.84,-64.94,-963.87,125.49,32.93,9.21,12.93,-63.45,32.40,-14.40,35.07,119.88,
06/01/2021,01:10:12.85,-31.25,-924.32,105.47,29.33,9.09,14.82,-61.80,33.75,-17.55,35.55,119.88,
06/01/2021,01:10:12.85,16.60,-900.88,78.12,26.10,6.83,15.37,-61.80,33.75,-17.55,35.46,119.88,
06/01/2021,01:10:12.86,41.02,-874.02,72.75,19.45,5.30,17.93,-61.80,33.75,-17.55,35.41,119.88,
06/01/2021,01:10:12.87,202.64,-836.43,44.43,-1.34,-8.66,12.01,-61.35,33.30,-16.35,35.22,119.88,
06/01/2021,01:10:12.88,254.88,-847.66,45.90,-8.41,-16.52,7.44,-61.35,33.30,-16.35,35.41,119.88,
06/01/2021,01:10:12.91,240.23,-900.88,24.41,-4.15,-57.38,-17.56,-63.00,31.95,-15.15,35.07,119.87,
06/01/2021,01:10:12.93,112.30,-999.02,-48.83,15.24,-64.39,-16.34,-62.85,31.50,-14.55,35.36,119.87,
06/01/2021,01:10:12.93,52.73,-1038.57,-78.61,20.91,-60.98,-13.84,-62.85,31.50,-14.55,35.36,119.87,
06/01/2021,01:10:12.95,-83.98,-1116.70,-92.77,28.78,-39.94,-6.22,-61.95,33.15,-17.25,35.46,119.87,
06/01/2021,01:10:12.95,-123.05,-1117.19,-81.05,27.87,-29.39,0.85,-61.95,33.15,-17.25,35.36,119.87,
06/01/2021,01:10:12.96,-154.79,-1113.28,-99.12,27.50,-17.50,1.40,-62.25,32.85,-18.00,35.36,119.87,
06/01/2021,01:10:12.97,-193.85,-1084.96,-91.31,26.52,-11.10,10.73,-59.70,31.65,-18.75,35.41,119.87,
06/01/2021,01:10:12.97,-193.36,-1056.64,-97.66,23.78,-1.22,11.10,-59.70,31.65,-18.75,35.22,119.87,
06/01/2021,01:10:12.99,-189.45,-979.00,-70.31,15.12,9.94,18.23,-61.65,30.45,-17.70,35.55,119.87,
06/01/2021,01:10:12.99,-198.24,-920.41,-73.73,12.56,12.13,18.54,-61.65,30.45,-17.70,35.55,119.87,
06/01/2021,01:10:13.00,-186.04,-892.09,-74.22,8.96,14.63,18.05,-59.70,31.95,-16.95,35.60,119.87,
06/01/2021,01:10:13.01,-159.67,-861.33,-84.47,10.30,14.02,16.83,-59.70,31.95,-16.95,35.27,119.87,
06/01/2021,01:10:13.01,-156.74,-857.91,-82.03,5.67,13.11,16.40,-59.70,31.95,-16.95,35.27,119.87,
06/01/2021,01:10:13.02,-151.37,-836.43,-99.12,4.63,10.98,13.17,-60.15,32.85,-17.25,35.36,119.87,
06/01/2021,01:10:13.03,-60.06,-839.36,-137.70,0.49,6.04,8.90,-60.60,31.50,-17.10,35.60,119.87,
06/01/2021,01:10:13.04,-42.97,-863.28,-131.35,-0.91,7.20,10.91,-60.60,31.50,-17.10,35.27,119.87,
06/01/2021,01:10:13.05,4.39,-864.26,-156.25,1.22,7.38,7.38,-60.60,31.50,-17.10,35.22,119.87,
06/01/2021,01:10:13.05,47.85,-884.77,-156.25,2.32,9.82,8.54,-59.25,32.25,-16.80,35.22,119.87,
06/01/2021,01:10:13.06,75.68,-870.12,-160.16,4.33,9.76,8.41,-59.25,32.25,-16.80,35.55,119.87,
06/01/2021,01:10:13.07,152.83,-904.79,-165.53,7.93,13.78,7.93,-61.95,30.45,-15.90,35.36,119.87,
06/01/2021,01:10:13.08,128.91,-910.64,-156.25,8.90,13.60,4.63,-61.35,31.80,-15.60,35.27,119.87,
06/01/2021,01:10:13.08,124.51,-912.11,-146.48,8.35,14.02,6.16,-61.35,31.80,-15.60,35.17,119.87,
06/01/2021,01:10:13.09,114.75,-916.50,-148.44,7.32,15.85,0.98,-60.30,30.30,-17.55,35.36,119.87,
06/01/2021,01:10:13.10,91.80,-916.99,-136.72,6.59,16.04,2.44,-60.30,30.30,-17.55,35.41,119.87,
06/01/2021,01:10:13.11,62.01,-922.85,-138.67,8.23,19.39,-1.04,-60.90,31.20,-17.25,35.55,119.87,
06/01/2021,01:10:13.12,56.15,-937.50,-161.62,6.16,23.41,-4.09,-60.90,31.20,-17.25,35.07,119.87,
06/01/2021,01:10:13.12,34.18,-933.11,-161.13,7.87,25.37,-2.20,-61.95,31.65,-15.90,35.17,119.87,
06/01/2021,01:10:13.13,37.60,-939.94,-171.88,8.11,27.80,-2.50,-61.95,31.65,-15.90,35.17,119.87,
06/01/2021,01:10:13.14,32.23,-941.41,-179.69,8.66,29.15,-2.50,-61.95,31.65,-15.90,35.55,119.87,
06/01/2021,01:10:13.14,33.20,-945.80,-194.34,8.11,31.65,-1.46,-58.50,29.55,-16.35,35.36,119.88,
06/01/2021,01:10:13.16,63.96,-940.92,-212.40,5.79,37.87,-0.67,-60.60,31.05,-14.55,35.46,119.87,
06/01/2021,01:10:13.16,58.11,-939.45,-196.78,5.79,35.30,2.87,-62.55,29.55,-13.05,35.27,119.87,
06/01/2021,01:10:13.17,87.40,-931.64,-208.50,6.34,37.93,4.33,-62.55,29.55,-13.05,35.55,119.87,
06/01/2021,01:10:13.17,78.12,-920.90,-227.54,3.66,33.54,5.73,-60.90,30.90,-15.90,35.07,119.88,
06/01/2021,01:10:13.18,100.59,-908.69,-218.75,2.68,33.11,5.73,-60.90,31.20,-16.20,35.36,119.88,
06/01/2021,01:10:13.20,92.77,-898.44,-235.35,4.82,28.29,8.90,-61.20,29.70,-15.45,35.55,119.87,
06/01/2021,01:10:13.20,91.80,-902.83,-266.60,5.18,25.00,10.37,-61.20,29.70,-15.45,35.27,119.87,
06/01/2021,01:10:13.21,84.96,-908.69,-274.90,5.30,22.07,7.99,-61.20,29.70,-15.45,35.55,119.88,
06/01/2021,01:10:13.21,72.75,-920.41,-293.95,3.84,22.01,9.94,-60.15,31.95,-15.15,35.55,119.88,
06/01/2021,01:10:13.22,62.99,-923.34,-285.64,1.89,21.10,8.72,-60.15,31.95,-15.15,35.07,119.88,
06/01/2021,01:10:13.23,23.93,-902.83,-300.29,-2.87,17.44,10.00,-61.95,28.95,-12.90,35.27,119.87,
06/01/2021,01:10:13.24,18.55,-911.13,-303.22,-5.49,19.15,8.96,-61.80,29.85,-13.50,35.22,119.88,
06/01/2021,01:10:13.25,1.46,-909.67,-310.55,-6.22,17.26,12.01,-61.80,29.85,-13.50,35.36,119.88,
06/01/2021,01:10:13.25,-19.53,-896.97,-300.29,-6.52,18.54,10.85,-60.45,30.15,-14.40,35.22,119.88,
06/01/2021,01:10:13.26,-11.23,-904.30,-297.36,-5.61,18.35,10.85,-60.45,30.15,-14.40,35.07,119.88,
06/01/2021,01:10:13.28,-40.53,-918.95,-311.52,-10.00,19.51,15.61,-61.65,30.45,-12.60,35.22,119.88,
06/01/2021,01:10:13.28,-61.04,-912.60,-292.48,-9.94,21.10,14.94,-62.70,30.45,-13.20,35.22,119.88,
06/01/2021,01:10:13.29,-54.20,-940.92,-311.04,-13.05,19.70,19.63,-62.70,30.45,-13.20,35.07,119.88,
06/01/2021,01:10:13.29,-51.76,-957.03,-294.43,-15.55,24.88,17.07,-62.70,30.45,-13.20,35.55,119.88,
06/01/2021,01:10:13.30,-59.57,-974.61,-294.92,-14.27,25.73,19.33,-62.70,30.45,-13.20,35.22,119.88,
06/01/2021,01:10:13.30,-64.45,-965.33,-310.55,-18.35,28.23,18.11,-61.20,29.40,-14.40,35.55,119.88,
06/01/2021,01:10:13.32,-47.85,-1000.98,-294.92,-23.17,28.54,17.50,-61.20,29.40,-14.40,35.36,119.88,
06/01/2021,01:10:13.33,-19.53,-1007.81,-299.32,-25.91,27.20,17.26,-63.30,28.80,-12.30,35.36,119.88,
06/01/2021,01:10:13.33,-11.72,-1019.53,-303.71,-21.52,29.39,16.59,-61.20,31.20,-12.90,35.55,119.88,
06/01/2021,01:10:13.34,24.90,-1016.11,-326.17,-25.55,27.13,15.37,-61.20,31.20,-12.90,35.27,119.88,
06/01/2021,01:10:13.34,19.04,-1035.64,-354.00,-27.93,30.67,15.18,-59.55,29.55,-13.50,35.07,119.88,
06/01/2021,01:10:13.36,27.34,-1033.69,-372.07,-27.80,27.07,17.38,-61.20,28.50,-12.60,35.55,119.88,
06/01/2021,01:10:13.37,29.30,-1010.74,-384.28,-28.48,26.46,18.23,-64.20,28.20,-10.65,35.36,119.88,
06/01/2021,01:10:13.37,6.35,-1020.51,-400.88,-26.71,26.77,14.63,-61.65,28.20,-10.65,35.55,119.88,
06/01/2021,01:10:13.38,18.07,-1013.18,-420.90,-30.43,25.55,17.20,-61.65,29.40,-12.15,35.55,119.88,
06/01/2021,01:10:13.38,-15.14,-1056.64,-463.38,-32.50,21.89,18.96,-61.65,29.40,-12.15,35.22,119.88,
06/01/2021,01:10:13.43,155.27,-1735.35,57.13,-40.37,12.38,-0.12,-62.10,29.55,-12.75,35.36,119.87,
06/01/2021,01:10:13.44,204.10,-1400.88,314.45,-10.24,18.48,-12.87,-63.30,29.10,-13.50,35.17,119.87,
06/01/2021,01:10:13.45,204.10,-1238.28,319.34,12.20,17.99,-12.93,-63.60,29.10,-12.00,35.22,119.87,
06/01/2021,01:10:13.45,179.20,-1113.28,271.48,27.26,18.41,-19.82,-61.65,30.15,-12.00,35.17,119.87,
06/01/2021,01:10:13.46,118.16,-1012.70,192.87,34.63,17.13,-17.74,-61.65,30.15,-12.90,34.93,119.87,
06/01/2021,01:10:13.47,14.16,-909.18,0.98,25.85,11.04,-20.61,-60.60,29.55,-13.05,35.70,119.87,
06/01/2021,01:10:13.48,-45.90,-874.51,-47.36,13.66,15.61,-22.99,-60.60,29.55,-13.05,35.07,119.87,
06/01/2021,01:10:13.49,-124.02,-809.08,-75.68,4.27,16.04,-18.48,-62.70,28.95,-13.95,35.27,119.87,
06/01/2021,01:10:13.49,-188.96,-767.58,-81.54,-2.87,17.93,-16.71,-62.70,28.95,-13.95,35.07,119.87,
06/01/2021,01:10:13.50,-257.81,-743.65,-98.63,-10.79,23.23,-11.16,-62.70,28.95,-13.95,35.27,119.87,
06/01/2021,01:10:13.51,-362.79,-755.86,-106.93,-17.20,32.38,3.29,-60.60,29.55,-15.30,35.36,119.87,
06/01/2021,01:10:13.52,-355.96,-797.85,-99.12,-14.09,34.21,9.21,-61.20,27.00,-10.65,35.46,119.87,
06/01/2021,01:10:13.53,-323.73,-839.36,-75.68,-6.77,39.57,10.67,-61.35,29.55,-13.50,35.36,119.87,
06/01/2021,01:10:13.53,-289.06,-899.41,-84.47,-1.65,43.78,13.11,-61.35,29.55,-13.50,35.17,119.87,
06/01/2021,01:10:13.54,-229.49,-940.92,-88.87,6.83,46.77,15.67,-62.10,29.10,-12.00,35.22,119.87,
06/01/2021,01:10:13.55,-101.56,-1054.20,-70.80,19.94,50.12,15.24,-61.80,28.05,-11.70,35.22,119.87,
06/01/2021,01:10:13.56,-15.62,-1101.56,-69.82,19.82,48.23,10.85,-64.05,25.65,-9.45,35.17,119.87,
06/01/2021,01:10:13.57,51.76,-1119.63,-78.61,21.59,44.82,4.21,-64.05,25.65,-9.45,35.22,119.87,
06/01/2021,01:10:13.57,112.30,-1137.70,-62.99,23.60,45.24,2.80,-64.05,25.65,-9.45,35.36,119.87,
06/01/2021,01:10:13.58,165.53,-1150.88,-45.41,21.22,38.17,-3.48,-61.65,28.95,-10.35,35.27,119.87,
06/01/2021,01:10:13.59,283.69,-1123.54,-30.76,20.12,20.43,-18.84,-61.65,28.95,-10.35,35.36,119.87,
06/01/2021,01:10:13.60,283.69,-1108.89,-18.07,16.65,13.90,-24.94,-64.20,27.75,-8.55,35.55,119.87,
06/01/2021,01:10:13.60,301.27,-1064.94,-17.09,16.46,7.13,-27.26,-64.20,27.75,-8.55,35.17,119.87,
06/01/2021,01:10:13.61,295.41,-1018.07,-18.55,16.16,0.67,-29.27,-63.60,28.80,-10.50,35.46,119.87,
06/01/2021,01:10:13.62,281.74,-986.82,-18.07,12.32,-5.79,-31.65,-62.25,28.95,-10.65,35.36,119.87,
06/01/2021,01:10:13.62,262.70,-924.32,-27.34,11.04,-14.45,-29.63,-62.25,28.95,-10.65,35.41,119.87,
06/01/2021,01:10:13.64,199.22,-868.16,-64.45,11.04,-26.16,-23.90,-64.35,28.35,-10.50,35.27,119.87,
06/01/2021,01:10:13.64,161.62,-860.84,-70.80,12.26,-28.54,-22.01,-64.35,28.35,-10.50,35.46,119.87,
06/01/2021,01:10:13.65,128.42,-865.72,-63.48,18.29,-31.95,-22.56,-62.25,30.15,-9.60,35.22,119.87,
06/01/2021,01:10:13.66,103.03,-868.16,-72.27,19.45,-38.05,-21.59,-62.25,30.15,-9.60,35.17,119.87,
06/01/2021,01:10:13.66,43.95,-885.74,-72.27,22.01,-38.54,-26.16,-62.25,30.15,-9.60,35.17,119.88,
06/01/2021,01:10:13.68,-70.80,-916.02,-88.38,25.00,-35.73,-20.49,-63.60,29.10,-9.75,35.36,119.87,
06/01/2021,01:10:13.68,-127.44,-898.44,-76.17,24.82,-33.35,-20.37,-63.60,29.10,-9.75,35.17,119.87,
06/01/2021,01:10:13.69,-164.06,-902.34,-92.29,25.37,-30.73,-16.04,-61.80,30.30,-10.95,35.36,119.87,
06/01/2021,01:10:13.70,-166.02,-884.28,-93.75,26.89,-25.73,-11.59,-61.80,30.30,-10.95,35.27,119.88,
06/01/2021,01:10:13.70,-191.41,-869.14,-104.49,24.94,-25.85,-8.35,-61.95,28.50,-12.60,35.36,119.88,
06/01/2021,01:10:13.72,-94.73,-841.80,-154.30,24.51,-22.38,-0.49,-63.60,28.05,-10.20,35.17,119.87,
06/01/2021,01:10:13.72,-73.24,-850.59,-162.60,25.79,-24.88,0.06,-63.60,28.05,-10.20,35.22,119.87,
06/01/2021,01:10:13.73,-24.41,-863.77,-198.24,23.60,-27.44,0.49,-62.85,30.75,-13.05,35.22,119.88,
06/01/2021,01:10:13.74,-9.77,-876.95,-199.22,23.29,-34.09,0.00,-62.85,30.75,-13.05,35.17,119.88,
06/01/2021,01:10:13.74,36.62,-905.27,-209.47,22.07,-39.76,0.43,-61.95,27.75,-11.85,35.46,119.88,
06/01/2021,01:10:13.76,55.18,-935.06,-189.94,19.45,-49.51,-2.87,-61.95,27.75,-11.85,35.27,119.87,
06/01/2021,01:10:13.76,36.13,-940.43,-194.34,17.68,-51.16,-8.96,-65.10,27.60,-10.20,35.07,119.88,
06/01/2021,01:10:13.77,50.78,-932.13,-191.89,14.51,-52.13,-9.27,-61.95,28.95,-11.85,35.36,119.88,
06/01/2021,01:10:13.78,21.00,-942.38,-179.69,16.04,-54.09,-7.80,-61.95,28.95,-11.85,35.36,119.88,
06/01/2021,01:10:13.78,-2.93,-935.06,-175.78,14.09,-55.73,-11.59,-64.05,30.75,-12.75,35.36,119.88,
06/01/2021,01:10:13.80,-53.71,-937.99,-173.34,14.94,-52.50,-13.84,-63.00,28.95,-12.60,35.27,119.88,
06/01/2021,01:10:13.80,-63.96,-943.85,-174.32,12.01,-48.60,-13.78,-64.80,28.80,-9.75,35.55,119.88,
06/01/2021,01:10:13.81,-66.41,-958.50,-170.90,12.13,-49.88,-12.80,-64.80,28.80,-9.75,35.41,119.88,
06/01/2021,01:10:13.81,-84.96,-966.31,-175.78,9.02,-47.62,-15.49,-61.05,28.35,-13.80,35.55,119.88,
06/01/2021,01:10:13.82,-63.48,-971.68,-178.22,5.18,-45.73,-12.99,-61.05,28.35,-13.80,35.36,119.88,
06/01/2021,01:10:13.84,-52.25,-974.12,-187.99,0.73,-45.00,-13.96,-61.35,27.15,-12.75,35.22,119.88,
06/01/2021,01:10:13.84,-63.96,-971.19,-206.05,2.32,-48.17,-11.71,-61.35,27.15,-12.75,35.55,119.88,
06/01/2021,01:10:13.85,-54.20,-982.42,-212.40,4.09,-47.87,-14.09,-61.35,27.15,-12.75,35.22,119.88,
06/01/2021,01:10:13.85,-66.41,-978.52,-221.19,1.10,-45.37,-12.68,-61.05,28.05,-13.80,35.55,119.88,
06/01/2021,01:10:13.86,-55.66,-998.54,-227.05,1.95,-43.48,-14.33,-61.80,29.10,-13.50,35.36,119.88,
06/01/2021,01:10:13.88,-48.34,-1028.81,-233.40,1.71,-44.15,-14.57,-63.60,26.40,-13.50,35.03,119.88,
06/01/2021,01:10:13.88,-43.46,-1033.20,-259.28,1.46,-42.87,-13.11,-63.45,29.70,-12.60,35.27,119.88,
06/01/2021,01:10:13.89,-35.16,-1052.73,-262.21,0.79,-45.73,-13.72,-63.45,29.70,-12.60,35.36,119.88,
06/01/2021,01:10:13.89,-51.27,-1055.18,-264.65,-0.43,-46.16,-9.63,-62.70,28.50,-13.95,35.17,119.88,
06/01/2021,01:10:13.90,-50.78,-1062.50,-287.11,-6.28,-43.60,-12.56,-62.70,28.50,-13.95,35.22,119.88,
06/01/2021,01:10:13.96,95.21,-1169.43,-517.58,-37.93,-53.23,-14.09,-62.10,26.85,-13.80,35.27,119.87,
06/01/2021,01:10:13.98,176.27,-1349.61,-427.25,-58.78,-66.16,-15.91,-60.90,28.50,-14.70,35.36,119.87,
06/01/2021,01:10:13.98,216.31,-1415.04,-303.71,-64.94,-68.11,-16.46,-62.55,27.60,-13.80,35.27,119.87,
06/01/2021,01:10:13.99,220.70,-1435.55,-162.11,-62.50,-73.78,-16.89,-62.55,27.60,-13.80,35.55,119.87,
06/01/2021,01:10:13.99,180.18,-1414.55,-10.74,-53.60,-72.01,-18.90,-61.05,30.30,-16.35,35.75,119.87,
06/01/2021,01:10:14.03,31.25,-1171.39,222.66,21.28,-51.04,-13.35,-62.70,27.75,-14.70,35.07,119.87,
06/01/2021,01:10:14.03,45.90,-1189.45,154.30,25.24,-46.40,-9.63,-62.70,27.75,-14.70,35.17,119.87,
06/01/2021,01:10:14.04,55.18,-1179.69,91.31,26.89,-43.35,-6.40,-61.95,30.45,-17.25,35.07,119.87,
06/01/2021,01:10:14.04,52.25,-1153.81,71.78,22.50,-41.95,-0.43,-60.90,28.50,-19.80,35.36,119.87,
06/01/2021,01:10:14.05,62.50,-1095.70,51.27,19.21,-40.91,2.44,-60.90,28.50,-19.80,35.36,119.87,
06/01/2021,01:10:14.06,80.08,-1034.67,63.48,20.98,-41.34,8.48,-61.35,29.10,-18.15,35.36,119.87,
06/01/2021,01:10:14.07,157.23,-901.86,81.54,23.60,-40.18,7.93,-60.90,29.70,-18.45,35.22,119.87,
06/01/2021,01:10:14.08,215.82,-869.63,77.15,25.12,-39.88,9.76,-62.10,29.10,-17.10,35.27,119.87,
06/01/2021,01:10:14.08,270.02,-847.66,60.06,22.68,-40.06,1.28,-62.10,29.10,-17.10,35.36,119.87,
06/01/2021,01:10:14.09,311.52,-812.99,45.90,19.27,-43.54,-1.34,-58.20,30.15,-18.75,35.27,119.87,
06/01/2021,01:10:14.09,352.05,-809.08,27.34,16.16,-46.10,-10.18,-58.20,30.15,-18.75,35.55,119.87,
06/01/2021,01:10:14.11,355.47,-796.88,-32.23,6.10,-58.84,-26.10,-60.60,29.10,-18.60,35.17,119.87,
06/01/2021,01:10:14.12,331.54,-787.60,-43.46,7.99,-60.18,-28.17,-60.60,29.10,-18.60,35.27,119.87,
06/01/2021,01:10:14.12,314.45,-799.32,-52.73,8.48,-60.12,-29.33,-60.60,29.10,-18.60,35.36,119.87,
06/01/2021,01:10:14.13,271.97,-824.71,-84.96,10.06,-60.18,-34.82,-60.30,28.35,-20.40,35.36,119.87,
06/01/2021,01:10:14.13,230.47,-868.65,-102.54,10.98,-59.70,-32.99,-61.20,30.45,-18.45,35.55,119.87,
06/01/2021,01:10:14.15,111.82,-969.24,-121.58,13.54,-57.01,-35.06,-59.70,27.75,-19.50,35.41,119.87,
06/01/2021,01:10:14.16,75.20,-1013.67,-110.35,15.73,-58.72,-29.39,-60.30,27.60,-18.60,35.36,119.87,
06/01/2021,01:10:14.16,41.99,-1029.79,-91.80,14.33,-57.07,-30.55,-60.30,27.60,-18.60,35.46,119.87,
06/01/2021,01:10:14.17,25.39,-1045.41,-79.10,19.88,-58.29,-20.67,-60.15,30.15,-20.55,35.41,119.87,
06/01/2021,01:10:14.17,-14.65,-1050.29,-59.08,22.93,-54.76,-20.55,-60.15,30.15,-20.55,35.46,119.87,
06/01/2021,01:10:14.19,-50.78,-1018.55,-50.78,25.30,-46.89,-6.65,-59.25,30.30,-20.70,35.46,119.87,
06/01/2021,01:10:14.19,-42.48,-995.61,-48.83,26.46,-42.01,-2.80,-61.20,28.50,-19.80,35.55,119.87,
06/01/2021,01:10:14.20,-30.27,-977.54,-63.96,26.77,-36.22,0.37,-61.20,28.50,-19.80,35.36,119.87,
06/01/2021,01:10:14.21,-6.35,-962.40,-67.87,28.54,-35.98,2.87,-61.20,28.50,-19.80,35.17,119.87,
06/01/2021,01:10:14.21,15.62,-958.01,-105.47,27.56,-34.51,5.79,-61.20,28.50,-19.80,35.60,119.87,
06/01/2021,01:10:14.23,85.45,-925.29,-130.37,23.54,-33.23,7.13,-61.05,28.80,-19.65,35.36,119.87,
06/01/2021,01:10:14.23,103.03,-930.18,-136.23,21.52,-28.41,6.10,-61.05,28.80,-19.65,35.36,119.87,
06/01/2021,01:10:14.24,132.81,-919.43,-138.18,19.45,-28.66,6.77,-60.30,29.85,-18.90,35.22,119.87,
06/01/2021,01:10:14.25,150.39,-918.95,-132.81,18.48,-30.61,5.43,-59.70,28.50,-21.75,35.07,119.87,
06/01/2021,01:10:14.25,182.13,-915.04,-131.84,16.16,-32.50,3.23,-59.70,28.50,-21.75,35.36,119.87,
06/01/2021,01:10:14.26,196.78,-915.53,-134.77,12.07,-33.48,1.22,-58.05,28.35,-21.45,35.36,119.87,
06/01/2021,01:10:14.27,231.93,-903.81,-122.56,13.11,-32.68,0.06,-58.95,28.95,-21.75,35.36,119.87,
06/01/2021,01:10:14.28,238.28,-906.25,-108.89,12.44,-37.87,-2.07,-58.95,28.95,-21.75,35.36,119.87,
06/01/2021,01:10:14.29,240.23,-894.04,-118.16,9.82,-38.11,-3.78,-58.20,28.95,-21.75,35.36,119.87,
06/01/2021,01:10:14.29,218.26,-890.62,-106.93,11.71,-39.57,-3.96,-58.20,28.50,-20.25,35.55,119.87,
06/01/2021,01:10:14.30,212.89,-891.11,-114.26,12.74,-41.22,-2.62,-58.20,28.50,-20.25,35.22,119.87,
06/01/2021,01:10:14.31,167.97,-895.51,-119.14,12.32,-47.26,-5.49,-58.95,26.70,-20.25,35.46,119.87,
06/01/2021,01:10:14.32,162.60,-929.69,-123.54,8.90,-44.39,-5.18,-60.45,28.95,-19.50,35.17,119.87,
06/01/2021,01:10:14.32,141.11,-914.55,-125.98,6.34,-44.57,-6.52,-60.45,28.95,-19.50,35.55,119.87,
06/01/2021,01:10:14.33,146.48,-920.90,-129.88,8.48,-46.22,-6.52,-57.75,29.10,-21.15,35.36,119.87,
06/01/2021,01:10:14.34,145.02,-942.87,-128.42,7.93,-45.91,-5.12,-58.50,27.60,-21.15,35.36,119.87,
06/01/2021,01:10:14.35,128.91,-943.85,-132.32,5.12,-41.04,-0.73,-59.55,26.10,-20.70,35.27,119.87,
06/01/2021,01:10:14.36,114.75,-953.12,-137.70,6.22,-42.01,-3.23,-60.30,28.35,-21.45,35.41,119.87,
06/01/2021,01:10:14.36,137.21,-932.62,-132.81,4.27,-39.94,-3.23,-60.30,28.35,-21.45,35.55,119.87,
06/01/2021,01:10:14.37,125.49,-930.18,-142.58,5.30,-39.45,0.61,-60.30,28.35,-21.45,35.27,119.87,
06/01/2021,01:10:14.38,120.61,-943.85,-129.39,6.34,-38.78,0.79,-60.30,28.35,-21.45,35.27,119.87,
06/01/2021,01:10:14.39,121.09,-928.22,-158.20,3.78,-38.90,4.63,-57.75,28.05,-23.70,35.27,119.87,
06/01/2021,01:10:14.40,130.37,-932.62,-167.48,1.65,-38.90,4.39,-59.40,26.25,-20.55,35.17,119.87,
06/01/2021,01:10:14.40,131.84,-933.59,-177.73,2.13,-37.07,8.29,-59.40,26.25,-20.55,35.27,119.87,
06/01/2021,01:10:14.41,131.35,-936.04,-164.55,1.77,-38.23,6.40,-56.40,27.45,-23.10,35.46,119.87,
06/01/2021,01:10:14.42,119.14,-931.15,-171.88,2.99,-37.99,4.70,-56.40,27.45,-23.10,35.27,119.87,
06/01/2021,01:10:14.46,77.15,-956.05,-225.59,-5.49,-30.12,12.13,-58.80,27.15,-21.90,35.22,119.87,
06/01/2021,01:10:14.47,71.78,-986.82,-257.32,-12.87,-25.91,14.15,-57.90,26.70,-22.05,35.27,119.87,
06/01/2021,01:10:14.48,67.38,-998.54,-255.86,-12.20,-25.37,15.91,-58.20,28.20,-22.35,35.55,119.87,
06/01/2021,01:10:14.49,62.01,-1013.18,-260.74,-13.78,-21.65,16.16,-58.20,28.20,-22.35,35.27,119.87,
06/01/2021,01:10:14.49,71.29,-1038.57,-277.34,-14.27,-20.37,19.45,-56.25,26.85,-24.45,35.36,119.87,
06/01/2021,01:10:14.51,74.22,-1089.84,-294.92,-16.46,-14.63,19.33,-55.05,28.05,-24.75,35.55,119.87,
06/01/2021,01:10:14.51,74.71,-1116.21,-298.34,-17.07,-12.38,23.05,-59.25,26.10,-20.40,35.55,119.87,
06/01/2021,01:10:14.52,51.76,-1125.00,-313.48,-17.01,-11.16,20.55,-56.70,26.10,-20.40,35.55,119.87,
06/01/2021,01:10:14.53,58.59,-1141.60,-332.03,-17.74,-7.80,24.02,-56.70,27.45,-23.85,35.55,119.87,
06/01/2021,01:10:14.53,41.50,-1127.44,-335.94,-19.39,-3.35,25.12,-56.70,27.45,-23.85,35.41,119.87,
06/01/2021,01:10:14.55,32.23,-1147.46,-376.95,-24.82,4.63,28.41,-55.80,27.60,-24.75,35.46,119.87,
06/01/2021,01:10:14.55,15.62,-1138.67,-384.77,-27.99,6.16,27.80,-55.80,27.60,-24.75,35.36,119.87,
06/01/2021,01:10:14.56,-18.07,-1162.60,-399.41,-30.30,7.62,28.48,-55.80,27.60,-24.75,35.55,119.87,
06/01/2021,01:10:14.57,-41.02,-1204.59,-393.07,-34.82,9.27,25.37,-56.70,29.70,-26.10,35.07,119.87,
06/01/2021,01:10:14.57,-32.71,-1257.32,-383.30,-40.06,7.74,26.65,-55.50,26.40,-23.70,35.22,119.87,
06/01/2021,01:10:14.58,-14.16,-1323.24,-328.12,-46.46,7.01,25.12,-55.50,26.40,-23.70,35.36,119.87,
06/01/2021,01:10:14.59,150.39,-1451.17,-89.84,-54.09,-9.82,16.52,-57.30,26.85,-22.20,35.55,119.87,
06/01/2021,01:10:14.60,225.59,-1451.17,15.14,-53.05,-13.48,10.06,-57.30,26.85,-22.20,35.07,119.87,
06/01/2021,01:10:14.60,291.99,-1416.50,84.47,-50.79,-21.28,4.09,-55.05,28.80,-23.70,35.36,119.87,
06/01/2021,01:10:14.61,358.40,-1363.77,148.44,-40.79,-30.61,0.43,-54.30,28.05,-24.75,35.36,119.87,
06/01/2021,01:10:14.62,348.14,-1272.46,191.41,-33.05,-37.74,-4.45,-54.30,28.05,-24.75,35.22,119.87,
06/01/2021,01:10:14.63,252.93,-1039.06,162.60,5.61,-40.37,-14.02,-55.05,25.65,-24.00,35.22,119.87,
06/01/2021,01:10:14.64,176.27,-994.63,104.98,16.65,-38.29,-13.41,-55.05,25.65,-24.00,35.60,119.87,
06/01/2021,01:10:14.64,104.98,-975.59,58.59,19.94,-37.99,-16.34,-55.05,25.65,-24.00,35.36,119.87,
06/01/2021,01:10:14.65,55.18,-935.55,9.77,24.39,-36.77,-15.61,-55.05,25.65,-24.00,35.46,119.87,
06/01/2021,01:10:14.66,-9.77,-930.66,-29.30,23.29,-32.38,-13.05,-54.60,27.75,-26.40,35.27,119.87,
06/01/2021,01:10:14.67,-124.51,-860.35,-69.34,11.59,-14.70,-7.44,-57.30,26.10,-24.45,35.46,119.87,
06/01/2021,01:10:14.68,-166.50,-845.70,-77.64,6.46,-14.39,-2.93,-57.30,26.10,-24.45,35.27,119.87,
06/01/2021,01:10:14.68,-192.87,-840.33,-58.11,-0.37,-9.02,-0.24,-55.05,28.05,-24.75,35.22,119.87,
06/01/2021,01:10:14.69,-207.52,-830.57,-55.66,-5.98,-3.78,3.60,-55.05,28.05,-24.75,35.22,119.87,
06/01/2021,01:10:14.70,-217.77,-840.33,-15.14,-9.09,-0.55,3.23,-54.30,26.40,-26.25,35.46,119.87,
06/01/2021,01:10:14.71,-230.96,-824.71,37.11,-4.27,3.41,8.23,-55.80,27.60,-26.55,35.55,119.87,
06/01/2021,01:10:14.72,-216.80,-832.52,40.53,-2.38,4.21,10.79,-55.80,27.60,-26.55,35.46,119.87,
06/01/2021,01:10:14.72,-187.99,-862.30,58.59,1.22,2.99,11.59,-54.30,26.85,-27.75,35.46,119.87,
06/01/2021,01:10:14.73,-132.32,-892.09,72.27,3.66,1.83,9.02,-54.30,26.85,-27.75,35.22,119.87,
06/01/2021,01:10:14.74,-71.29,-930.66,46.39,8.41,-3.90,12.20,-54.30,26.85,-27.75,35.27,119.87,
06/01/2021,01:10:14.76,98.63,-1060.55,-28.81,3.11,-21.10,4.63,-56.40,24.75,-24.30,35.36,119.87,
06/01/2021,01:10:14.76,149.41,-1056.15,-19.04,0.30,-28.41,-0.98,-56.40,24.75,-24.30,34.93,119.87,
06/01/2021,01:10:14.77,175.29,-1065.43,-36.13,-2.44,-34.76,-3.90,-56.25,29.10,-26.25,35.36,119.87,
06/01/2021,01:10:14.77,188.96,-1063.48,-30.27,-4.45,-39.45,-9.27,-55.05,26.40,-26.25,35.41,119.87,
06/01/2021,01:10:14.78,195.31,-1053.71,-41.99,-4.51,-46.04,-14.88,-55.05,26.40,-26.25,35.22,119.87,
06/01/2021,01:10:14.79,194.82,-1039.06,-22.46,-1.16,-47.26,-20.00,-53.40,26.70,-27.60,35.46,119.87,
06/01/2021,01:10:14.80,132.32,-995.61,-34.67,4.51,-55.06,-22.20,-53.85,26.70,-24.90,35.27,119.87,
06/01/2021,01:10:14.81,112.30,-984.38,-57.62,7.80,-54.45,-21.04,-53.85,26.70,-24.90,35.27,119.87,
06/01/2021,01:10:14.81,84.96,-963.87,-36.13,7.32,-52.99,-22.01,-53.85,26.70,-24.90,35.27,119.87,
06/01/2021,01:10:14.82,48.34,-956.54,-49.80,9.21,-52.38,-21.46,-54.15,27.75,-26.10,35.55,119.87,
06/01/2021,01:10:14.82,15.62,-953.12,-65.92,10.18,-50.43,-21.10,-54.15,27.75,-26.10,35.36,119.87,
06/01/2021,01:10:14.84,-23.93,-943.85,-87.89,12.99,-50.91,-18.35,-53.85,26.70,-27.60,35.22,119.87,
06/01/2021,01:10:14.85,-38.09,-949.71,-104.00,10.73,-51.89,-15.06,-56.25,26.10,-25.50,35.46,119.87,
06/01/2021,01:10:14.85,-55.66,-941.41,-119.63,10.06,-50.12,-18.23,-56.25,26.10,-25.50,35.27,119.87,
06/01/2021,01:10:14.86,-59.57,-920.90,-113.28,12.13,-50.79,-14.33,-52.20,29.10,-27.00,35.55,119.87,
06/01/2021,01:10:14.86,-64.94,-921.88,-118.65,13.84,-52.44,-8.72,-52.65,26.70,-26.40,35.55,119.87,
06/01/2021,01:10:14.88,-65.43,-886.23,-132.32,12.50,-52.44,-10.00,-54.30,25.65,-27.30,35.27,119.87,
06/01/2021,01:10:14.89,-54.69,-895.02,-126.95,11.04,-50.85,-7.01,-52.95,26.85,-25.95,35.17,119.87,
06/01/2021,01:10:14.89,-72.75,-869.14,-126.95,12.20,-53.84,-3.72,-52.95,26.85,-25.95,35.22,119.87,
06/01/2021,01:10:14.90,-63.48,-885.74,-141.11,12.50,-52.74,-4.33,-52.95,26.85,-25.95,35.55,119.87,
06/01/2021,01:10:14.90,-64.45,-873.05,-122.56,11.16,-55.43,-3.05,-52.95,26.85,-25.95,35.41,119.87,
06/01/2021,01:10:14.92,-50.78,-924.32,-122.07,10.30,-58.84,-4.27,-50.25,27.60,-28.05,35.55,119.87,
06/01/2021,01:10:14.93,-54.20,-926.76,-117.68,11.83,-60.49,-6.59,-54.15,25.80,-27.15,35.36,119.87,
06/01/2021,01:10:14.93,-66.89,-948.24,-135.25,10.24,-61.16,-6.34,-54.15,25.80,-27.15,35.46,119.87,
06/01/2021,01:10:14.96,-60.55,-977.05,-176.76,8.60,-64.57,-8.48,-51.90,24.75,-28.65,35.07,119.87,
06/01/2021,01:10:14.98,-98.14,-968.75,-178.22,7.38,-63.48,-13.48,-52.20,25.35,-26.25,35.36,119.87,
06/01/2021,01:10:14.99,-103.03,-953.12,-210.45,8.48,-58.35,-14.27,-52.20,25.35,-26.25,35.36,119.87,
06/01/2021,01:10:15.00,-100.59,-937.01,-201.66,9.15,-57.20,-11.10,-51.75,23.70,-26.25,35.36,119.87,
06/01/2021,01:10:15.01,-100.10,-946.78,-213.87,10.12,-55.18,-11.34,-51.75,23.70,-26.25,35.55,119.87,
06/01/2021,01:10:15.01,-109.38,-942.38,-217.77,8.66,-57.01,-10.00,-51.75,23.70,-26.25,35.46,119.87,
06/01/2021,01:10:15.02,-90.33,-937.01,-217.77,5.37,-50.91,-10.73,-49.35,27.00,-28.95,35.27,119.87,
06/01/2021,01:10:15.03,-92.29,-948.73,-208.01,5.49,-50.18,-11.46,-48.60,25.80,-28.20,35.17,119.87,
06/01/2021,01:10:15.04,-95.21,-940.92,-223.14,4.63,-50.55,-7.20,-49.50,25.35,-28.05,35.17,119.87,
06/01/2021,01:10:15.05,-83.98,-939.94,-216.80,2.99,-47.80,-9.15,-49.50,25.35,-28.05,35.46,119.87,
06/01/2021,01:10:15.05,-83.01,-937.50,-221.68,1.34,-46.95,-8.90,-48.75,27.60,-31.35,35.36,119.87,
06/01/2021,01:10:15.06,-74.71,-945.31,-213.87,2.74,-44.45,-10.61,-49.05,26.25,-31.20,35.55,119.87,
06/01/2021,01:10:15.07,-62.50,-963.38,-218.75,-2.32,-46.40,-10.12,-49.95,26.40,-28.50,35.55,119.87,
06/01/2021,01:10:15.08,-49.32,-975.59,-217.77,-3.60,-48.11,-11.52,-49.95,26.40,-28.50,35.22,119.87,
06/01/2021,01:10:15.09,-63.96,-983.40,-208.50,-5.67,-46.65,-11.59,-49.95,26.40,-28.50,35.03,119.87,
06/01/2021,01:10:15.09,-62.50,-985.35,-196.78,-7.07,-49.70,-9.63,-48.75,27.60,-30.60,35.46,119.87,
06/01/2021,01:10:15.10,-88.87,-993.16,-190.43,-4.82,-46.83,-11.28,-48.75,27.60,-30.60,35.36,119.87,
06/01/2021,01:10:15.11,-92.29,-993.16,-208.50,-6.65,-45.55,-11.10,-47.40,25.65,-28.05,35.55,119.87,
06/01/2021,01:10:15.12,-105.96,-1004.88,-200.20,-6.10,-45.24,-8.23,-49.50,25.35,-28.05,35.27,119.87,
06/01/2021,01:10:15.13,-119.14,-1000.00,-206.54,-4.76,-41.59,-9.76,-49.50,25.35,-28.05,35.46,119.87,
06/01/2021,01:10:15.13,-104.49,-1008.30,-218.26,-5.49,-43.48,-7.80,-46.95,26.85,-30.30,35.70,119.87,
06/01/2021,01:10:15.14,-98.63,-1023.44,-229.98,-6.83,-40.61,-10.24,-46.95,26.85,-30.30,35.22,119.87,
06/01/2021,01:10:15.15,-78.61,-1048.34,-276.37,-12.20,-41.28,-8.90,-47.40,25.65,-31.05,35.22,119.87,
06/01/2021,01:10:15.16,-67.38,-1080.08,-281.25,-10.85,-44.76,-9.57,-48.60,26.70,-28.20,35.36,119.87,
06/01/2021,01:10:15.17,-46.88,-1089.36,-291.99,-17.93,-46.89,-10.30,-48.60,26.70,-28.20,35.17,119.87,
06/01/2021,01:10:15.17,-17.58,-1104.00,-296.39,-22.20,-49.82,-11.77,-48.60,26.70,-28.20,35.17,119.87,
06/01/2021,01:10:15.18,17.09,-1117.68,-341.31,-29.63,-49.88,-15.12,-48.60,26.70,-28.20,35.27,119.87,
06/01/2021,01:10:15.19,86.91,-1230.47,-304.20,-39.15,-57.56,-14.82,-49.05,26.25,-29.70,35.22,119.87,
06/01/2021,01:10:15.20,81.05,-1293.46,-257.32,-43.78,-60.55,-14.63,-45.90,26.25,-29.70,35.07,119.87,
06/01/2021,01:10:15.21,92.29,-1334.47,-192.87,-42.20,-63.54,-14.51,-45.90,26.85,-30.60,35.22,119.87,
06/01/2021,01:10:15.21,86.43,-1358.40,-148.93,-41.46,-65.30,-12.80,-46.80,26.25,-32.25,35.27,119.87,
06/01/2021,01:10:15.22,50.29,-1330.08,-68.85,-39.88,-61.46,-11.71,-46.80,26.25,-32.25,35.55,119.87,
06/01/2021,01:10:15.23,-79.10,-1208.01,-20.51,-17.44,-39.70,-8.84,-47.10,27.45,-31.20,35.27,119.87,
06/01/2021,01:10:15.24,-107.42,-1169.43,-15.14,-6.89,-26.28,-8.48,-47.10,27.45,-31.20,35.36,119.87,
06/01/2021,01:10:15.24,-109.38,-1138.67,-35.16,5.18,-16.34,-4.21,-47.10,27.45,-31.20,35.22,119.87,
06/01/2021,01:10:15.25,-105.47,-1129.88,-75.68,11.83,-11.34,-5.91,-45.45,28.35,-32.40,35.36,119.87,
06/01/2021,01:10:15.26,-62.99,-1113.28,-108.89,14.63,-8.35,-4.51,-45.45,28.35,-32.40,35.36,119.87,
06/01/2021,01:10:15.26,-38.09,-1112.30,-114.75,14.39,-7.44,-4.09,-45.45,28.35,-32.40,35.36,119.87,
06/01/2021,01:10:15.28,84.96,-1078.61,-98.63,-1.89,-14.51,-2.99,-44.55,26.25,-31.20,35.27,119.87,
06/01/2021,01:10:15.28,129.39,-1028.32,-69.34,-5.30,-21.34,-7.20,-47.10,26.25,-28.95,35.27,119.87,
06/01/2021,01:10:15.29,179.20,-976.56,-38.57,-9.57,-25.49,-6.04,-45.45,28.05,-28.95,35.36,119.87,
06/01/2021,01:10:15.30,203.61,-921.88,-14.65,-10.37,-30.91,-9.88,-45.45,28.05,-32.10,35.46,119.87,
06/01/2021,01:10:15.30,244.14,-874.02,38.09,-8.90,-33.29,-12.68,-45.90,27.15,-31.80,35.70,119.87,
06/01/2021,01:10:15.32,326.66,-776.37,101.07,6.89,-55.18,-18.54,-44.85,25.80,-31.95,35.55,119.87,
06/01/2021,01:10:15.32,338.87,-758.79,115.72,12.74,-62.74,-21.71,-45.90,28.35,-29.55,35.36,119.87,
06/01/2021,01:10:15.33,349.12,-770.02,124.02,16.71,-69.57,-22.50,-45.90,28.35,-29.55,35.46,119.87,
06/01/2021,01:10:15.34,362.30,-769.53,134.77,25.30,-79.45,-24.63,-45.90,28.35,-29.55,35.41,119.87,
06/01/2021,01:10:15.34,351.07,-809.57,132.32,30.37,-84.09,-25.24,-43.95,27.60,-33.15,35.27,119.87,
06/01/2021,01:10:15.36,292.97,-895.51,99.61,33.72,-91.04,-24.94,-43.95,27.60,-33.15,35.27,119.87,
06/01/2021,01:10:15.36,253.42,-924.80,66.89,30.37,-87.68,-24.51,-45.30,26.25,-31.50,35.17,119.87,
06/01/2021,01:10:15.37,204.59,-948.24,35.64,26.89,-79.82,-24.33,-45.30,26.25,-31.50,35.36,119.87,
06/01/2021,01:10:15.38,171.39,-977.05,-3.91,23.23,-67.80,-26.89,-43.65,26.85,-32.40,35.07,119.87,
06/01/2021,01:10:15.38,133.30,-1008.30,-37.60,21.10,-54.57,-22.87,-43.65,26.85,-32.40,35.22,119.87,
06/01/2021,01:10:15.40,35.64,-1043.95,-56.64,12.99,-33.17,-20.61,-44.25,26.70,-31.95,35.36,119.87,
06/01/2021,01:10:15.40,-1.46,-1069.34,-81.05,13.84,-26.28,-15.43,-44.55,25.50,-30.15,35.27,119.87,
06/01/2021,01:10:15.41,-21.97,-1097.17,-80.08,13.90,-24.76,-14.63,-44.55,25.50,-30.15,35.46,119.87,
06/01/2021,01:10:15.42,-23.44,-1093.75,-72.27,10.91,-25.37,-10.49,-41.70,27.15,-32.10,35.55,119.87,
06/01/2021,01:10:15.42,-40.04,-1084.96,-58.11,13.11,-28.90,-9.70,-41.70,27.15,-32.10,35.27,119.87,
06/01/2021,01:10:15.44,3.91,-1067.38,-53.71,11.22,-34.94,-4.51,-43.95,26.10,-29.85,35.41,119.87,
06/01/2021,01:10:15.47,75.68,-968.26,-88.38,13.35,-52.68,-5.30,-44.70,25.35,-29.55,35.36,119.87,
06/01/2021,01:10:15.48,119.14,-921.88,-125.00,11.52,-56.28,-5.85,-43.65,24.90,-28.80,35.36,119.87,
06/01/2021,01:10:15.49,107.42,-888.18,-144.53,13.11,-57.56,-10.98,-43.65,24.90,-28.80,35.17,119.87,
06/01/2021,01:10:15.50,111.33,-881.35,-154.30,10.67,-59.21,-10.73,-41.25,25.80,-30.75,35.46,119.87,
06/01/2021,01:10:15.51,111.33,-860.35,-166.99,6.71,-52.44,-13.90,-41.10,26.85,-31.80,35.07,119.87,
06/01/2021,01:10:15.52,94.24,-856.93,-160.16,6.52,-53.29,-13.17,-41.10,26.85,-31.80,35.07,119.87,
06/01/2021,01:10:15.53,83.50,-864.26,-155.76,6.46,-48.11,-12.20,-39.75,26.70,-32.25,35.17,119.87,
06/01/2021,01:10:15.53,64.94,-867.68,-141.11,4.76,-43.72,-15.24,-39.75,26.70,-32.25,35.27,119.87,
06/01/2021,01:10:15.54,49.32,-891.60,-135.25,4.33,-42.68,-13.29,-39.75,26.70,-32.25,35.36,119.87,
06/01/2021,01:10:15.55,75.68,-908.20,-123.54,3.11,-34.76,-13.96,-39.90,25.35,-31.35,35.22,119.87,
06/01/2021,01:10:15.56,73.73,-927.25,-112.79,2.87,-35.00,-13.78,-42.45,25.35,-29.55,35.07,119.87,
06/01/2021,01:10:15.56,84.47,-919.43,-126.46,5.43,-36.89,-11.71,-42.45,25.35,-29.55,35.46,119.87,
06/01/2021,01:10:15.57,90.82,-935.06,-112.79,4.33,-37.44,-11.71,-39.90,27.60,-31.80,35.55,119.87,
06/01/2021,01:10:15.58,97.66,-935.55,-119.14,5.30,-35.49,-10.43,-39.00,26.70,-32.25,35.70,119.87,
06/01/2021,01:10:15.58,120.12,-938.48,-131.84,2.62,-36.40,-9.82,-39.00,26.70,-32.25,35.36,119.87,
06/01/2021,01:10:15.60,135.25,-958.01,-143.55,7.80,-39.27,-4.45,-40.35,25.35,-30.30,35.36,119.87,
06/01/2021,01:10:15.60,146.48,-944.34,-155.27,8.41,-39.51,-4.45,-40.35,25.35,-30.30,35.36,119.87,
06/01/2021,01:10:15.61,158.69,-955.57,-151.86,6.83,-39.15,-2.93,-40.35,25.35,-30.30,35.36,119.87,
06/01/2021,01:10:15.62,150.88,-947.75,-147.46,7.50,-39.45,-1.89,-40.35,26.40,-32.40,35.46,119.87,
06/01/2021,01:10:15.62,147.46,-953.12,-156.25,5.61,-41.59,-4.27,-40.35,26.40,-32.40,35.22,119.87,
06/01/2021,01:10:15.64,137.21,-950.20,-166.02,3.96,-38.35,3.54,-39.75,23.55,-30.45,35.36,119.87,
06/01/2021,01:10:15.64,119.14,-945.31,-156.74,4.09,-35.30,1.52,-39.75,23.55,-30.45,35.70,119.87,
06/01/2021,01:10:15.65,111.33,-952.64,-155.27,5.79,-39.02,0.43,-38.55,25.80,-31.20,35.17,119.87,
06/01/2021,01:10:15.65,104.98,-937.01,-158.20,2.07,-37.62,2.74,-38.55,25.80,-31.20,35.17,119.87,
06/01/2021,01:10:15.66,97.17,-943.85,-166.50,3.48,-38.96,5.61,-38.85,25.35,-32.10,35.17,119.87,
06/01/2021,01:10:15.68,79.59,-945.31,-160.16,-1.10,-36.28,3.72,-38.85,25.35,-31.80,35.55,119.87,
06/01/2021,01:10:15.68,72.27,-937.01,-185.55,-1.04,-36.28,4.39,-38.85,25.35,-31.80,35.27,119.87,
06/01/2021,01:10:15.69,69.82,-936.04,-171.88,-4.15,-32.32,5.79,-40.35,24.90,-32.10,35.55,119.87,
06/01/2021,01:10:15.69,65.43,-947.75,-180.18,-2.20,-31.71,4.82,-40.35,24.90,-32.10,35.36,119.87,
06/01/2021,01:10:15.70,62.50,-936.52,-195.80,-4.02,-28.48,6.95,-40.35,24.90,-32.10,35.55,119.87,
06/01/2021,01:10:15.72,94.24,-960.94,-208.01,-8.23,-29.39,7.87,-37.65,26.10,-32.40,35.07,119.87,
06/01/2021,01:10:15.72,93.26,-979.00,-224.12,-9.33,-28.54,10.30,-38.55,23.25,-29.40,35.36,119.87,
06/01/2021,01:10:15.73,107.91,-990.72,-241.21,-10.85,-25.85,11.34,-36.15,26.40,-30.30,35.27,119.87,
06/01/2021,01:10:15.73,99.12,-1006.84,-243.16,-11.71,-30.79,13.60,-36.15,26.40,-30.30,35.46,119.87,
06/01/2021,01:10:15.74,101.56,-1025.88,-253.42,-14.21,-26.65,12.99,-37.50,26.25,-31.95,35.36,119.87,
06/01/2021,01:10:15.76,86.43,-1035.64,-286.62,-17.20,-25.73,16.40,-36.60,26.40,-31.05,35.27,119.87,
06/01/2021,01:10:15.76,76.66,-1054.69,-297.85,-17.62,-23.66,16.10,-38.85,24.90,-28.80,35.22,119.87,
06/01/2021,01:10:15.77,76.66,-1057.13,-295.90,-19.33,-22.74,19.88,-38.85,24.90,-28.80,35.17,119.87,
06/01/2021,01:10:15.77,47.85,-1061.52,-316.41,-18.66,-20.06,21.89,-38.85,24.90,-28.80,35.07,119.87,
06/01/2021,01:10:15.78,33.20,-1075.68,-323.73,-22.26,-16.83,22.56,-36.60,24.90,-32.40,35.17,119.87,
06/01/2021,01:10:15.80,-32.23,-1085.94,-334.47,-23.54,-5.30,23.90,-36.60,24.90,-32.40,35.55,119.87,
06/01/2021,01:10:15.80,-43.46,-1096.68,-330.08,-26.59,-6.46,32.56,-38.25,25.80,-29.70,35.27,119.87,
06/01/2021,01:10:15.81,-63.96,-1134.77,-321.29,-33.17,-3.54,27.62,-38.25,25.80,-29.70,35.41,119.87,
06/01/2021,01:10:15.81,-82.52,-1184.08,-305.66,-32.80,-4.27,29.09,-35.55,25.35,-33.15,35.60,119.87,
06/01/2021,01:10:15.82,-86.91,-1242.19,-278.81,-36.71,-4.33,24.94,-36.45,26.70,-31.95,35.41,119.87,
06/01/2021,01:10:15.83,19.53,-1436.04,-134.77,-50.00,-5.85,22.26,-36.45,26.25,-30.75,35.27,119.87,
06/01/2021,01:10:15.84,110.35,-1485.35,-39.55,-53.78,-12.38,13.60,-38.40,26.40,-30.60,35.17,119.87,
06/01/2021,01:10:15.85,218.26,-1500.98,37.60,-55.18,-18.60,9.70,-38.40,26.40,-30.60,35.36,119.87,
06/01/2021,01:10:15.85,312.01,-1460.94,101.07,-49.57,-28.48,4.39,-36.60,26.10,-34.35,35.55,119.87,
06/01/2021,01:10:15.86,384.77,-1401.37,176.76,-35.85,-43.29,-5.61,-36.60,26.10,-34.35,35.22,119.87,
06/01/2021,01:10:15.87,313.48,-1131.84,146.97,3.11,-53.90,-16.10,-35.25,26.70,-31.95,35.07,119.87,
06/01/2021,01:10:15.88,251.46,-1038.57,118.65,20.43,-55.12,-21.83,-35.25,26.70,-31.95,35.36,119.87,
06/01/2021,01:10:15.89,180.18,-986.33,85.94,25.91,-47.44,-22.93,-35.25,26.70,-31.95,35.17,119.87,
06/01/2021,01:10:15.89,105.47,-951.17,44.92,30.79,-40.43,-24.94,-36.75,27.75,-33.00,35.27,119.87,
06/01/2021,01:10:15.90,29.79,-905.76,8.30,32.80,-33.84,-21.71,-36.75,27.75,-33.00,35.27,119.87,
06/01/2021,01:10:15.90,-27.34,-871.58,-27.83,30.37,-24.70,-21.28,-34.05,26.40,-33.60,35.36,119.87,
06/01/2021,01:10:15.92,-136.23,-795.90,-81.54,13.96,-10.43,-12.07,-35.70,26.70,-33.00,35.55,119.87,
06/01/2021,01:10:15.93,-161.62,-768.55,-73.73,4.15,-6.04,-14.39,-35.85,25.65,-30.30,35.36,119.87,
06/01/2021,01:10:15.93,-174.32,-756.35,-74.71,-2.93,-9.02,-6.95,-35.55,26.85,-33.15,35.07,119.87,
06/01/2021,01:10:15.94,-165.04,-757.32,-57.13,-11.40,-10.79,-5.98,-35.55,26.85,-33.15,35.22,119.87,
06/01/2021,01:10:15.94,-149.41,-783.20,-30.76,-20.24,-16.16,-3.78,-34.80,25.35,-32.10,35.27,119.87,
06/01/2021,01:10:15.99,141.11,-1061.52,20.51,-4.57,-48.48,-4.02,-36.15,25.35,-32.10,35.55,119.87,
06/01/2021,01:10:16.00,258.30,-1143.07,15.62,6.40,-60.00,-13.90,-36.60,24.60,-31.05,35.36,119.87,
06/01/2021,01:10:16.01,298.34,-1132.32,33.20,5.98,-61.59,-17.07,-36.60,24.60,-31.05,35.36,119.87,
06/01/2021,01:10:16.01,299.80,-1143.55,26.37,13.17,-68.35,-23.41,-34.20,26.70,-32.25,35.36,119.87,
06/01/2021,01:10:16.02,285.16,-1117.68,35.16,15.79,-69.94,-24.94,-34.20,26.70,-32.25,35.27,119.87,
06/01/2021,01:10:16.03,231.45,-1048.83,66.41,16.10,-79.15,-31.40,-34.95,27.45,-32.70,34.93,119.87,
06/01/2021,01:10:16.04,196.29,-1017.09,30.76,15.12,-81.40,-31.34,-34.95,27.45,-32.70,35.07,119.87,
06/01/2021,01:10:16.05,151.37,-992.68,25.88,13.23,-83.41,-30.06,-34.95,27.45,-32.70,35.22,119.87,
06/01/2021,01:10:16.05,127.93,-975.10,0.98,12.62,-82.13,-32.20,-31.95,27.00,-32.70,35.22,119.87,
06/01/2021,01:10:16.06,117.19,-953.12,-5.86,13.90,-83.11,-30.24,-31.95,27.00,-32.70,35.17,119.87,
06/01/2021,01:10:16.07,78.12,-926.27,-67.87,14.45,-85.61,-26.65,-32.40,25.50,-30.45,35.17,119.87,
06/01/2021,01:10:16.08,69.34,-915.04,-99.61,11.77,-85.49,-25.85,-32.40,25.50,-30.45,35.27,119.87,
06/01/2021,01:10:16.09,64.94,-920.90,-101.07,14.39,-89.70,-22.26,-31.95,26.25,-32.25,35.27,119.87,
06/01/2021,01:10:16.09,57.62,-926.76,-101.56,12.93,-89.70,-24.82,-32.40,26.25,-32.25,35.27,119.87,
06/01/2021,01:10:16.10,49.80,-929.69,-110.84,11.46,-95.30,-25.49,-32.40,26.25,-31.95,35.27,119.87,
06/01/2021,01:10:16.11,44.43,-926.76,-84.47,15.24,-105.00,-24.27,-31.35,24.60,-31.80,35.17,119.87,
06/01/2021,01:10:16.12,50.78,-924.80,-63.48,15.67,-109.70,-24.76,-31.35,24.60,-31.80,35.27,119.87,
06/01/2021,01:10:16.13,54.20,-921.39,-70.80,14.57,-112.87,-22.32,-30.60,27.15,-30.30,35.07,119.87,
06/01/2021,01:10:16.13,74.22,-917.97,-59.08,15.37,-113.29,-25.73,-30.60,27.15,-30.30,35.07,119.87,
06/01/2021,01:10:16.14,76.66,-925.78,-58.11,14.76,-117.56,-22.13,-30.60,27.15,-30.30,34.93,119.87,
06/01/2021,01:10:16.15,82.52,-931.15,-52.73,12.38,-124.82,-26.34,-29.70,24.30,-28.65,35.17,119.87,
06/01/2021,01:10:16.16,76.66,-932.13,-65.92,14.09,-125.30,-28.41,-29.70,24.30,-28.65,35.17,119.87,
06/01/2021,01:10:16.17,76.17,-945.80,-78.61,13.96,-128.60,-28.23,-27.30,25.65,-30.60,35.17,119.87,
06/01/2021,01:10:16.17,75.68,-946.78,-80.08,13.41,-127.07,-27.38,-27.30,25.65,-30.60,35.22,119.87,
06/01/2021,01:10:16.18,66.41,-970.21,-95.70,10.24,-127.32,-26.65,-27.45,24.75,-31.20,35.17,119.87,
06/01/2021,01:10:16.19,40.53,-999.51,-128.91,7.68,-127.38,-27.38,-27.15,24.00,-29.70,35.07,119.87,
06/01/2021,01:10:16.20,31.25,-987.30,-139.16,6.22,-124.51,-28.41,-27.75,25.35,-28.05,35.46,119.87,
06/01/2021,01:10:16.21,21.00,-1006.35,-142.09,4.88,-125.73,-32.07,-26.55,23.70,-30.30,35.55,119.87,
06/01/2021,01:10:16.21,7.81,-998.05,-141.11,5.55,-127.20,-32.38,-26.55,23.70,-30.30,35.03,119.87,
06/01/2021,01:10:16.22,0.98,-1008.79,-125.00,2.68,-126.40,-32.13,-25.65,23.25,-28.95,35.36,119.87,
06/01/2021,01:10:16.22,13.67,-994.14,-126.46,3.90,-128.72,-32.80,-25.65,23.25,-28.95,35.36,119.87,
06/01/2021,01:10:16.24,18.55,-968.26,-106.93,1.77,-130.18,-28.72,-26.55,24.60,-28.05,35.55,119.87,
06/01/2021,01:10:16.25,30.27,-971.68,-91.80,1.59,-130.98,-31.77,-26.40,23.25,-27.90,35.27,119.87,
06/01/2021,01:10:16.25,54.69,-956.54,-77.64,3.90,-132.80,-31.52,-26.40,23.25,-27.90,35.46,119.87,
06/01/2021,01:10:16.26,71.29,-958.98,-81.05,3.84,-133.35,-32.01,-25.50,23.40,-28.50,35.70,119.87,
06/01/2021,01:10:16.26,80.57,-941.41,-89.84,4.02,-135.00,-29.33,-25.50,23.40,-28.50,35.27,119.87,
06/01/2021,01:10:16.28,102.54,-959.96,-97.66,6.95,-130.61,-34.39,-25.05,24.15,-25.95,35.36,119.87,
06/01/2021,01:10:16.28,117.19,-966.80,-108.89,6.83,-131.89,-33.60,-25.05,24.15,-25.95,35.55,119.87,
06/01/2021,01:10:16.29,106.93,-973.63,-114.75,5.00,-131.04,-35.73,-23.10,24.30,-26.85,35.07,119.87,
06/01/2021,01:10:16.30,107.91,-985.35,-116.70,6.22,-132.07,-36.22,-23.10,24.30,-26.85,35.36,119.87,
06/01/2021,01:10:16.30,103.52,-992.68,-121.09,4.82,-131.04,-35.49,-23.10,24.30,-26.85,35.36,119.87,
06/01/2021,01:10:16.32,81.05,-1027.34,-127.93,3.90,-129.57,-32.26,-21.45,24.15,-26.55,35.27,119.87,
06/01/2021,01:10:16.32,62.99,-1038.09,-129.39,5.06,-130.85,-31.52,-21.45,24.15,-26.55,35.46,119.87,
06/01/2021,01:10:16.33,42.97,-1056.15,-104.00,4.09,-126.83,-30.98,-22.20,23.40,-24.75,35.36,119.87,
06/01/2021,01:10:16.34,23.93,-1045.41,-99.12,4.70,-132.01,-25.49,-22.20,23.40,-24.75,35.46,119.87,
06/01/2021,01:10:16.34,12.70,-1057.13,-99.12,5.98,-129.09,-22.93,-21.45,23.70,-25.20,35.36,119.87,
06/01/2021,01:10:16.36,7.32,-1025.39,-79.59,5.61,-126.59,-24.27,-22.35,21.60,-22.05,35.46,119.87,
06/01/2021,01:10:16.36,31.74,-1020.02,-83.01,6.83,-130.98,-25.85,-22.35,21.60,-22.05,35.17,119.87,
06/01/2021,01:10:16.37,54.69,-1018.07,-104.98,8.11,-132.50,-21.34,-19.20,23.70,-23.70,35.22,119.87,
06/01/2021,01:10:16.38,63.96,-998.05,-110.84,8.90,-131.65,-22.80,-19.20,23.70,-23.70,34.93,119.87,
06/01/2021,01:10:16.38,83.50,-994.63,-125.00,7.62,-135.79,-23.29,-19.05,22.05,-23.85,35.07,119.87,
06/01/2021,01:10:16.40,152.83,-996.58,-175.29,0.85,-139.70,-30.67,-19.05,22.05,-23.85,35.46,119.87,
06/01/2021,01:10:16.40,175.78,-1013.18,-176.76,-2.56,-140.18,-28.72,-19.95,21.45,-21.15,35.70,119.87,
06/01/2021,01:10:16.41,196.29,-1026.37,-192.87,-9.02,-141.71,-34.76,-19.95,21.45,-21.15,35.46,119.87,
06/01/2021,01:10:16.42,252.93,-1054.69,-202.15,-9.02,-144.21,-37.13,-19.95,21.45,-21.15,35.07,119.87,
06/01/2021,01:10:16.42,289.55,-1071.29,-167.97,-10.37,-145.67,-37.07,-20.25,22.95,-20.70,35.22,119.87,
06/01/2021,01:10:16.44,340.82,-1164.06,-23.44,-9.94,-158.78,-43.90,-18.00,22.95,-21.15,35.22,119.87,
06/01/2021,01:10:16.44,338.87,-1167.48,32.71,-5.49,-165.37,-44.63,-20.10,20.10,-19.50,35.07,119.87,
06/01/2021,01:10:16.45,338.87,-1174.32,67.38,0.24,-169.45,-46.77,-17.70,22.20,-18.90,35.46,119.87,
06/01/2021,01:10:16.46,298.34,-1198.73,108.89,7.38,-172.93,-46.10,-17.70,22.20,-18.90,35.27,119.87,
06/01/2021,01:10:16.46,266.11,-1196.78,125.00,15.98,-176.52,-49.51,-17.70,21.90,-20.40,35.17,119.87,
06/01/2021,01:10:16.50,76.17,-1075.20,71.29,27.26,-135.06,-26.89,-18.30,19.65,-16.20,35.27,119.87,
06/01/2021,01:10:16.52,108.40,-953.12,156.74,40.18,-137.13,-18.78,-18.75,22.20,-15.60,35.22,119.87,
06/01/2021,01:10:16.53,120.12,-876.46,171.39,47.87,-143.23,-14.33,-18.00,19.95,-12.00,35.70,119.87,
06/01/2021,01:10:16.53,137.70,-841.31,194.82,55.06,-147.01,-13.41,-15.15,22.65,-14.55,35.46,119.87,
06/01/2021,01:10:16.54,144.53,-808.59,192.38,58.29,-150.55,-10.67,-15.15,22.65,-14.55,35.22,119.87,
06/01/2021,01:10:16.55,202.64,-777.34,96.19,53.48,-150.06,-10.98,-16.20,21.00,-10.95,35.36,119.87,
06/01/2021,01:10:16.56,199.22,-800.29,40.04,47.32,-149.57,-9.39,-16.20,21.00,-10.95,35.03,119.87,
06/01/2021,01:10:16.56,209.47,-826.66,-14.16,38.60,-147.68,-15.00,-16.20,21.45,-11.25,34.93,119.87,
06/01/2021,01:10:16.57,208.50,-863.28,-40.53,32.80,-145.79,-15.43,-16.20,21.45,-11.25,35.07,119.87,
06/01/2021,01:10:16.58,187.99,-908.20,-61.04,27.50,-146.16,-14.88,-16.20,21.45,-11.25,35.07,119.87,
06/01/2021,01:10:16.59,168.95,-989.75,-60.55,17.07,-142.80,-18.23,-13.95,20.25,-11.70,35.55,119.87,
06/01/2021,01:10:16.60,157.23,-1039.55,-30.76,18.72,-137.93,-19.57,-13.95,20.25,-11.70,35.36,119.87,
06/01/2021,01:10:16.60,169.43,-1062.01,-23.93,17.68,-135.79,-21.16,-14.85,20.55,-8.10,35.27,119.87,
06/01/2021,01:10:16.61,155.76,-1092.77,11.23,16.16,-129.94,-21.10,-14.85,20.55,-8.10,35.55,119.87,
06/01/2021,01:10:16.62,159.18,-1124.51,6.35,17.32,-128.66,-24.15,-15.45,19.50,-7.65,35.55,119.87,
06/01/2021,01:10:16.63,181.15,-1139.65,25.39,15.85,-122.87,-19.27,-16.35,20.55,-7.05,35.46,119.87,
06/01/2021,01:10:16.64,194.34,-1140.14,26.86,16.34,-121.22,-22.50,-16.35,20.55,-7.05,35.27,119.87,
06/01/2021,01:10:16.64,208.01,-1133.30,25.39,19.45,-120.91,-19.15,-14.70,21.00,-7.95,35.46,119.87,
06/01/2021,01:10:16.65,206.05,-1117.19,-7.32,16.10,-121.16,-22.13,-14.70,21.00,-7.95,35.27,119.87,
06/01/2021,01:10:16.66,219.73,-1092.77,-8.30,16.89,-121.71,-21.34,-15.15,19.50,-6.15,35.36,119.87,
06/01/2021,01:10:16.67,234.38,-1037.60,-47.36,17.26,-122.87,-23.72,-14.55,20.55,-3.45,35.17,119.87,
06/01/2021,01:10:16.68,246.09,-1007.32,-64.45,18.60,-126.46,-20.06,-14.55,20.55,-3.45,35.07,119.87,
06/01/2021,01:10:16.68,258.30,-972.66,-58.59,17.68,-126.89,-20.30,-14.40,22.20,-5.40,35.07,119.87,
06/01/2021,01:10:16.69,262.70,-949.71,-56.15,17.38,-127.93,-22.07,-14.40,22.20,-5.40,35.46,119.87,
06/01/2021,01:10:16.70,261.72,-936.04,-76.17,20.00,-135.55,-22.01,-15.30,20.85,-4.80,35.07,119.87,
06/01/2021,01:10:16.70,284.67,-905.27,-52.73,17.62,-136.83,-22.07,-15.30,20.85,-4.80,35.27,119.87,
06/01/2021,01:10:16.72,243.16,-886.23,-53.71,16.59,-138.72,-22.32,-16.35,20.10,-0.45,35.27,119.87,
06/01/2021,01:10:16.72,259.77,-863.77,-46.88,14.09,-142.13,-24.33,-18.00,20.70,-0.60,35.36,119.87,
06/01/2021,01:10:16.73,255.37,-870.12,-28.81,15.61,-142.20,-19.21,-18.00,20.70,-0.60,35.22,119.87,
06/01/2021,01:10:16.74,249.02,-862.79,-21.48,13.35,-142.99,-20.37,-18.00,20.70,-0.60,35.22,119.87,
06/01/2021,01:10:16.74,241.21,-851.56,-10.74,11.95,-141.10,-20.30,-18.00,20.70,-0.60,35.22,119.87,
06/01/2021,01:10:16.76,215.33,-880.86,-22.46,15.24,-134.76,-16.04,-15.60,20.10,-0.90,35.22,119.87,
06/01/2021,01:10:16.76,204.10,-866.21,-28.81,16.04,-134.51,-12.87,-18.45,19.20,1.05,35.07,119.87,
06/01/2021,01:10:16.77,210.45,-877.44,-23.93,14.39,-128.29,-11.83,-18.45,19.20,1.05,35.22,119.87,
06/01/2021,01:10:16.78,198.24,-887.21,-34.67,15.12,-125.18,-10.00,-16.80,19.65,-0.15,35.22,119.87,
06/01/2021,01:10:16.78,190.43,-892.58,-53.22,14.70,-120.00,-10.06,-16.80,19.65,-0.15,35.17,119.87,
06/01/2021,01:10:16.80,193.36,-906.74,-61.04,13.48,-114.15,-2.56,-19.20,18.00,2.85,35.27,119.87,
06/01/2021,01:10:16.80,202.64,-905.76,-56.15,13.11,-110.00,-3.72,-19.95,20.25,3.60,35.22,119.87,
06/01/2021,01:10:16.81,197.27,-909.18,-57.62,12.99,-107.38,-1.40,-19.95,20.25,3.60,35.55,119.87,
06/01/2021,01:10:16.82,194.34,-922.36,-61.52,14.63,-106.89,-2.80,-17.55,21.30,1.50,35.36,119.87,
06/01/2021,01:10:16.82,191.89,-920.90,-61.04,15.37,-102.44,1.71,-17.55,21.30,1.50,35.36,119.87,
06/01/2021,01:10:16.84,175.78,-944.34,-79.59,13.35,-98.05,1.95,-18.75,18.75,3.60,35.46,119.87,
06/01/2021,01:10:16.84,195.80,-939.45,-76.66,12.93,-98.05,5.06,-18.75,18.75,3.60,35.55,119.87,
06/01/2021,01:10:16.85,212.89,-957.52,-79.59,12.13,-97.13,4.70,-18.75,18.75,3.60,35.36,119.87,
06/01/2021,01:10:16.85,188.48,-949.71,-75.20,11.89,-96.59,6.34,-18.75,18.75,3.60,35.17,119.87,
06/01/2021,01:10:16.86,199.71,-948.73,-72.27,13.96,-94.02,4.27,-17.40,19.95,5.40,35.27,119.87,
06/01/2021,01:10:16.88,184.57,-951.66,-85.45,10.24,-91.34,5.91,-18.60,19.35,5.55,35.27,119.87,
06/01/2021,01:10:16.88,178.22,-953.12,-79.10,10.06,-90.49,7.01,-18.60,19.35,5.55,35.17,119.87,
06/01/2021,01:10:16.89,168.46,-949.71,-89.36,10.73,-90.49,6.77,-20.10,20.10,5.25,35.07,119.87,
06/01/2021,01:10:16.89,181.15,-948.73,-98.14,10.24,-86.16,6.59,-20.10,20.10,5.25,35.27,119.87,
06/01/2021,01:10:16.90,183.11,-951.17,-107.91,7.13,-85.85,8.96,-19.05,20.55,6.00,35.60,119.87,
06/01/2021,01:10:16.90,193.36,-956.05,-117.19,6.40,-84.88,8.90,-19.05,20.55,6.00,35.27,119.87,
06/01/2021,01:10:16.92,213.38,-968.75,-130.37,3.66,-80.91,13.17,-20.25,21.45,5.40,35.22,119.87,
06/01/2021,01:10:16.93,210.45,-993.16,-130.37,3.23,-80.18,12.26,-20.70,19.95,6.45,35.55,119.87,
06/01/2021,01:10:16.93,219.73,-980.96,-136.23,1.77,-79.94,13.41,-20.70,19.95,6.45,35.41,119.87,
06/01/2021,01:10:16.94,220.70,-985.35,-158.20,-1.28,-77.26,12.07,-20.70,19.95,6.45,35.46,119.87,
06/01/2021,01:10:16.94,229.00,-988.28,-172.36,-2.50,-78.90,15.91,-20.70,19.95,6.45,35.07,119.87,
06/01/2021,01:10:16.96,230.47,-1022.95,-204.59,-7.56,-77.20,19.63,-20.70,20.25,7.95,35.55,119.87,
06/01/2021,01:10:16.96,225.10,-1040.04,-230.96,-9.09,-76.71,17.80,-20.70,20.25,7.95,35.27,119.87,
06/01/2021,01:10:16.97,222.17,-1065.43,-254.39,-13.66,-74.94,20.43,-20.25,21.90,8.70,35.36,119.87,
06/01/2021,01:10:16.98,205.08,-1083.98,-261.72,-15.55,-74.15,18.23,-19.20,21.00,7.65,35.46,119.87,
06/01/2021,01:10:17.03,340.82,-1179.20,35.16,-17.74,-96.22,0.00,-21.00,21.45,10.50,35.70,119.87,
06/01/2021,01:10:17.05,175.78,-1129.88,-53.22,-1.89,-81.34,-3.90,-22.65,20.55,10.65,35.55,119.86,
06/01/2021,01:10:17.06,125.00,-1128.91,-68.36,-0.37,-75.00,-3.41,-22.20,20.70,10.50,35.36,119.86,
06/01/2021,01:10:17.07,92.77,-1108.89,-76.66,2.07,-73.54,0.06,-22.20,20.70,10.50,35.60,119.87,
06/01/2021,01:10:17.07,41.50,-1089.36,-69.34,-1.04,-69.63,-3.17,-21.15,20.85,10.65,35.07,119.87,
06/01/2021,01:10:17.08,26.37,-1056.15,-61.52,-1.59,-64.94,0.61,-21.15,20.85,10.65,35.36,119.87,
06/01/2021,01:10:17.09,-76.66,-987.79,-34.67,0.55,-56.52,9.09,-24.00,22.20,11.25,35.36,119.86,
06/01/2021,01:10:17.10,-104.00,-953.61,-9.77,-0.55,-54.82,7.68,-24.00,22.20,11.25,35.46,119.87,
06/01/2021,01:10:17.10,-104.98,-943.85,7.81,-1.34,-55.98,6.83,-24.00,22.20,11.25,35.07,119.87,
06/01/2021,01:10:17.11,-121.58,-906.74,41.02,-0.49,-57.87,9.51,-22.35,21.30,12.15,35.17,119.87,
06/01/2021,01:10:17.12,-120.61,-896.00,52.25,2.26,-57.50,7.44,-22.35,21.30,12.15,35.36,119.87,
06/01/2021,01:10:17.12,-125.00,-871.58,77.15,1.89,-57.07,6.10,-22.35,21.30,12.15,35.36,119.87,
06/01/2021,01:10:17.14,-91.80,-863.28,109.38,0.67,-60.06,8.48,-22.35,21.60,10.05,35.22,119.87,
06/01/2021,01:10:17.14,-85.94,-866.21,123.05,-1.89,-64.15,7.56,-23.85,21.60,12.60,35.36,119.87,
06/01/2021,01:10:17.15,-64.94,-879.39,117.19,-3.41,-66.16,2.99,-22.65,22.35,11.40,35.36,119.87,
06/01/2021,01:10:17.15,-37.11,-888.18,106.93,-4.70,-66.34,5.18,-22.65,22.35,11.40,35.36,119.87,
06/01/2021,01:10:17.16,-14.65,-916.02,92.29,-4.15,-68.17,2.93,-23.25,22.20,10.50,35.17,119.87,
06/01/2021,01:10:17.18,25.88,-991.70,59.57,-2.93,-73.60,1.10,-22.95,21.45,12.00,35.36,119.87,
06/01/2021,01:10:17.18,30.27,-1011.23,33.20,-2.93,-81.65,-3.11,-25.50,22.95,13.05,35.36,119.87,
06/01/2021,01:10:17.19,35.64,-1033.20,18.07,-6.95,-82.56,-3.90,-25.50,22.95,13.05,35.27,119.87,
06/01/2021,01:10:17.19,41.99,-1063.96,-5.86,-6.16,-86.77,-8.66,-25.50,22.95,13.05,35.22,119.87,
06/01/2021,01:10:17.20,33.69,-1077.64,-17.58,-5.00,-90.30,-11.04,-23.70,21.90,12.00,35.27,119.87,
06/01/2021,01:10:17.21,50.29,-1121.58,-24.90,-4.76,-93.90,-10.91,-23.70,21.90,13.50,35.27,119.87,
06/01/2021,01:10:17.22,43.95,-1125.98,-14.16,-4.57,-96.52,-17.32,-25.05,22.20,13.80,35.70,119.87,
06/01/2021,01:10:17.23,53.71,-1123.54,-13.18,-1.46,-96.77,-13.17,-25.05,22.20,13.80,35.36,119.87,
06/01/2021,01:10:17.23,52.25,-1116.21,-20.51,0.55,-100.18,-15.12,-24.75,23.70,12.30,35.55,119.87,
06/01/2021,01:10:17.24,45.41,-1109.38,-11.72,0.79,-97.99,-15.55,-24.75,23.70,12.30,35.55,119.87,
06/01/2021,01:10:17.25,5.86,-1075.68,-31.25,5.30,-97.50,-15.30,-26.70,20.85,13.95,35.27,119.87,
06/01/2021,01:10:17.26,8.30,-1048.34,-38.09,5.00,-94.45,-11.71,-26.70,20.85,13.95,35.27,119.87,
06/01/2021,01:10:17.27,-9.28,-1036.62,-42.97,7.01,-93.29,-12.74,-26.70,20.85,13.95,35.55,119.87,
06/01/2021,01:10:17.27,-7.81,-1014.65,-65.92,8.90,-94.45,-9.94,-27.30,22.95,12.75,35.36,119.87,
06/01/2021,01:10:17.28,-30.76,-991.70,-64.45,7.93,-91.89,-8.90,-27.30,22.95,12.75,35.46,119.87,
06/01/2021,01:10:17.28,-26.86,-988.28,-78.61,7.93,-88.23,-7.13,-27.30,22.95,12.75,35.36,119.87,
06/01/2021,01:10:17.30,-18.07,-936.04,-62.99,6.22,-88.54,-0.79,-25.50,22.65,14.55,35.41,119.87,
06/01/2021,01:10:17.31,-31.25,-919.43,-75.68,4.82,-89.39,-1.52,-27.75,20.25,17.85,35.22,119.87,
06/01/2021,01:10:17.31,-17.09,-909.67,-70.80,7.87,-90.24,-0.85,-28.20,22.80,13.95,35.07,119.87,
06/01/2021,01:10:17.32,-30.27,-901.37,-71.78,8.05,-93.66,0.18,-28.20,22.80,13.95,35.22,119.87,
06/01/2021,01:10:17.32,-24.90,-899.41,-69.34,6.04,-96.10,-6.10,-27.15,21.60,13.95,35.36,119.87,
06/01/2021,01:10:17.34,-46.88,-884.77,-36.13,7.26,-96.83,0.91,-27.45,22.35,15.45,35.46,119.87,
06/01/2021,01:10:17.34,-57.62,-904.30,-33.20,8.60,-94.70,-1.28,-30.60,22.20,17.55,35.60,119.87,
06/01/2021,01:10:17.35,-66.41,-904.79,-15.14,9.51,-94.15,-4.15,-30.60,22.20,17.55,35.46,119.87,
06/01/2021,01:10:17.36,-77.15,-911.13,-25.39,11.16,-91.40,-3.72,-30.60,22.20,17.55,35.55,119.87,
06/01/2021,01:10:17.36,-79.59,-925.29,-13.67,9.94,-92.07,-3.48,-29.55,23.40,14.55,35.36,119.87,
06/01/2021,01:10:17.38,-94.24,-937.01,-19.53,11.22,-92.32,-3.23,-29.55,23.40,14.55,35.22,119.87,
06/01/2021,01:10:17.38,-95.70,-944.34,-39.55,11.52,-91.40,-5.24,-31.80,21.90,16.35,35.22,119.87,
06/01/2021,01:10:17.39,-104.00,-959.47,-23.93,13.29,-92.80,-2.99,-31.80,21.90,16.35,35.55,119.87,
06/01/2021,01:10:17.40,-94.73,-948.73,-41.02,15.67,-94.39,-2.87,-28.95,22.05,16.95,35.22,119.87,
06/01/2021,01:10:17.40,-89.36,-952.64,-45.90,15.85,-94.15,-3.60,-28.95,22.05,16.95,35.55,119.87,
06/01/2021,01:10:17.42,-85.45,-972.17,-84.47,14.82,-92.01,-7.62,-31.80,22.65,18.15,35.41,119.87,
06/01/2021,01:10:17.42,-67.38,-968.75,-92.77,13.54,-88.23,-6.52,-33.00,24.00,16.95,35.36,119.87,
06/01/2021,01:10:17.43,-64.94,-978.52,-88.87,12.87,-91.52,-7.13,-33.00,24.00,16.95,35.46,119.87,
06/01/2021,01:10:17.43,-51.27,-970.70,-104.00,10.79,-89.88,-6.71,-31.20,23.55,16.50,35.27,119.87,
06/01/2021,01:10:17.44,-50.29,-975.10,-119.63,11.04,-88.05,-8.11,-31.20,23.55,16.50,35.27,119.87,
06/01/2021,01:10:17.45,-35.64,-994.14,-117.68,7.62,-85.24,-8.05,-31.20,23.55,16.50,35.36,119.87,
06/01/2021,01:10:17.46,-28.32,-989.26,-121.09,7.50,-86.10,-9.88,-33.45,23.25,16.50,35.22,119.87,
06/01/2021,01:10:17.47,-37.11,-1013.18,-130.37,6.28,-81.16,-13.29,-33.45,23.25,16.50,35.27,119.87,
06/01/2021,01:10:17.47,-35.16,-1008.30,-136.23,3.72,-83.23,-11.46,-33.75,23.25,17.70,35.55,119.87,
06/01/2021,01:10:17.48,-39.55,-1010.74,-114.26,3.84,-80.67,-11.22,-33.75,23.25,17.70,35.27,119.87,
06/01/2021,01:10:17.49,-51.27,-1022.46,-109.86,2.56,-78.17,-8.48,-33.00,23.25,16.95,35.55,119.87,
06/01/2021,01:10:17.53,-58.11,-996.09,-118.65,-1.59,-62.99,-13.48,-36.15,22.20,20.70,35.22,119.87,
06/01/2021,01:10:17.54,-54.20,-990.72,-127.93,-5.37,-62.26,-15.00,-36.15,22.20,20.70,35.55,119.87,
06/01/2021,01:10:17.55,-45.90,-975.10,-135.25,-5.30,-59.94,-16.89,-36.90,21.45,20.10,35.41,119.87,
06/01/2021,01:10:17.56,-45.41,-979.98,-124.51,-9.21,-58.90,-17.44,-36.90,21.45,20.10,35.22,119.87,
06/01/2021,01:10:17.56,-35.16,-972.66,-151.86,-11.89,-60.91,-19.39,-36.90,21.45,20.10,35.07,119.87,
06/01/2021,01:10:17.58,-14.16,-983.89,-168.46,-18.35,-59.57,-22.93,-36.60,22.20,20.10,35.46,119.87,
06/01/2021,01:10:17.58,-13.18,-979.49,-182.62,-16.59,-59.39,-23.90,-36.60,22.20,20.10,35.46,119.87,
06/01/2021,01:10:17.59,8.79,-1004.88,-207.03,-21.46,-59.94,-24.70,-36.75,22.80,16.20,35.27,119.87,
06/01/2021,01:10:17.60,18.07,-1017.09,-209.47,-25.06,-59.82,-25.37,-36.60,24.15,17.55,35.70,119.87,
06/01/2021,01:10:17.60,43.95,-1022.46,-238.77,-28.23,-59.39,-27.50,-36.60,24.15,17.55,35.36,119.87,
06/01/2021,01:10:17.62,116.70,-1113.28,-280.76,-40.12,-63.29,-33.23,-39.30,22.35,18.75,35.27,119.87,
06/01/2021,01:10:17.62,160.64,-1151.86,-266.11,-45.00,-65.91,-37.93,-39.30,22.35,18.75,35.55,119.87,
06/01/2021,01:10:17.63,179.20,-1199.71,-227.05,-47.32,-69.33,-31.10,-39.30,22.35,18.75,35.36,119.87,
06/01/2021,01:10:17.64,184.08,-1228.52,-183.11,-46.59,-74.51,-33.90,-39.30,22.35,18.75,35.07,119.87,
06/01/2021,01:10:17.64,178.22,-1245.61,-120.61,-45.98,-76.40,-36.22,-38.55,23.25,18.00,35.07,119.87,
06/01/2021,01:10:17.66,85.94,-1211.91,29.30,-27.87,-74.45,-35.43,-40.80,21.60,16.50,35.22,119.87,
06/01/2021,01:10:17.66,53.22,-1173.34,88.38,-14.70,-67.68,-34.45,-40.80,21.60,16.50,35.46,119.87,
06/01/2021,01:10:17.67,55.18,-1138.18,100.59,-2.07,-58.48,-30.18,-41.25,22.35,15.90,35.36,119.87,
06/01/2021,01:10:17.67,42.97,-1106.93,111.33,7.50,-52.07,-27.56,-41.25,22.35,15.90,35.36,119.87,
06/01/2021,01:10:17.68,43.95,-1090.82,100.10,12.62,-47.01,-24.45,-40.50,23.25,16.20,35.22,119.87,
06/01/2021,01:10:17.70,64.94,-1037.60,69.34,13.78,-37.50,-19.51,-41.10,21.00,15.60,35.17,119.87,
06/01/2021,01:10:17.70,87.89,-1019.53,49.32,11.59,-37.26,-15.79,-41.55,20.55,17.25,35.22,119.87,
06/01/2021,01:10:17.71,72.27,-975.59,34.67,12.38,-37.13,-15.12,-40.50,22.80,14.40,35.17,119.87,
06/01/2021,01:10:17.71,73.24,-941.89,34.67,10.37,-40.43,-11.52,-40.50,22.80,14.40,35.17,119.87,
06/01/2021,01:10:17.72,94.24,-910.16,34.18,10.06,-40.12,-10.91,-40.50,22.80,14.40,35.22,119.87,
06/01/2021,01:10:17.73,88.87,-864.26,33.20,13.41,-42.99,-13.23,-40.50,22.80,14.40,35.22,119.87,
06/01/2021,01:10:17.74,136.23,-806.64,38.57,22.20,-55.85,-12.38,-43.80,22.80,19.50,35.36,119.87,
06/01/2021,01:10:17.75,164.55,-792.48,24.90,23.41,-63.72,-10.55,-43.80,22.80,19.50,35.36,119.87,
06/01/2021,01:10:17.75,155.76,-790.04,14.65,22.50,-68.29,-13.29,-42.15,22.65,17.10,35.55,119.87,
06/01/2021,01:10:17.76,160.64,-819.82,22.46,23.23,-73.54,-13.41,-42.45,22.65,17.10,35.07,119.87,
06/01/2021,01:10:17.77,172.85,-831.54,-6.35,20.30,-77.68,-14.88,-42.45,22.65,17.10,35.36,119.87,
06/01/2021,01:10:17.78,105.96,-943.85,-38.57,16.89,-75.61,-12.80,-43.20,22.65,18.90,35.27,119.87,
06/01/2021,01:10:17.79,75.20,-988.28,-51.27,13.90,-70.79,-11.10,-43.20,22.65,18.90,35.27,119.87,
06/01/2021,01:10:17.79,44.92,-1007.81,-63.48,11.77,-63.17,-7.99,-43.20,22.65,18.90,35.27,119.87,
06/01/2021,01:10:17.80,8.79,-1046.39,-71.78,11.40,-55.91,-8.29,-44.55,24.00,15.45,35.22,119.87,
06/01/2021,01:10:17.80,-12.70,-1079.59,-72.75,4.88,-50.24,-7.44,-44.55,24.00,15.45,35.07,119.87,
06/01/2021,01:10:17.82,-50.78,-1116.21,-68.36,5.85,-36.52,-2.01,-45.60,22.35,18.00,35.55,119.87,
06/01/2021,01:10:17.83,-24.90,-1144.04,-51.27,6.65,-31.89,-0.91,-45.60,22.35,18.00,35.27,119.87,
06/01/2021,01:10:17.83,-18.07,-1146.48,-54.69,7.07,-26.95,-0.98,-44.55,22.35,16.95,35.36,119.87,
06/01/2021,01:10:17.84,4.39,-1149.41,-58.59,7.62,-26.16,-1.65,-44.55,22.35,16.95,35.55,119.87,
06/01/2021,01:10:17.84,21.48,-1132.32,-65.92,8.23,-24.15,1.28,-44.40,24.15,16.35,35.07,119.87,
06/01/2021,01:10:17.86,76.66,-1080.08,-80.08,9.63,-24.51,-0.91,-44.70,22.65,17.55,35.36,119.87,
06/01/2021,01:10:17.86,93.75,-1062.01,-75.68,10.98,-24.57,-4.88,-46.80,22.35,17.70,35.36,119.87,
06/01/2021,01:10:17.87,94.24,-1040.04,-76.66,10.79,-23.29,-5.91,-45.60,24.30,16.95,35.22,119.87,
06/01/2021,01:10:17.88,89.84,-1033.69,-82.52,11.52,-22.26,-6.95,-45.60,24.30,16.95,35.27,119.87,
06/01/2021,01:10:17.88,91.80,-1000.49,-92.29,12.50,-23.78,-7.32,-45.60,24.30,16.95,35.07,119.87,
06/01/2021,01:10:17.90,88.87,-933.11,-116.70,10.18,-26.52,-5.55,-43.95,23.40,17.55,35.46,119.87,
06/01/2021,01:10:17.90,94.24,-921.39,-130.86,12.68,-22.99,-7.07,-43.95,23.40,17.55,35.27,119.87,
06/01/2021,01:10:17.91,81.54,-901.37,-144.53,10.49,-23.84,-7.87,-45.15,24.15,16.35,35.36,119.87,
06/01/2021,01:10:17.92,67.87,-896.00,-145.51,8.35,-23.41,-7.68,-45.15,24.15,16.35,35.41,119.87,
06/01/2021,01:10:17.92,70.80,-875.49,-145.02,7.50,-21.83,-5.30,-45.45,22.20,17.10,35.36,119.87,
06/01/2021,01:10:17.93,45.90,-871.58,-132.32,7.32,-20.67,-4.27,-45.45,22.20,17.10,35.36,119.87,
06/01/2021,01:10:17.94,15.14,-896.97,-133.30,3.78,-13.60,-1.89,-46.80,23.55,18.00,35.60,119.87,
06/01/2021,01:10:17.95,2.93,-884.28,-109.86,6.10,-12.80,0.79,-46.80,23.55,18.00,35.17,119.87,
06/01/2021,01:10:17.96,1.46,-893.55,-108.40,7.38,-11.65,2.01,-46.80,25.80,18.45,35.46,119.87,
06/01/2021,01:10:17.96,-9.28,-886.72,-91.31,7.20,-6.65,-0.43,-45.90,24.90,16.80,35.60,119.87,
06/01/2021,01:10:17.97,-7.32,-891.60,-103.03,7.20,-2.68,1.83,-45.90,24.90,16.80,35.17,119.87,
06/01/2021,01:10:17.98,-2.93,-913.57,-114.75,7.20,2.87,3.35,-47.55,24.00,18.00,35.22,119.87,
06/01/2021,01:10:17.99,-13.67,-906.25,-112.30,7.93,5.67,3.66,-47.55,24.00,18.00,35.55,119.87,
06/01/2021,01:10:17.99,1.95,-913.57,-130.86,8.05,8.90,4.88,-47.55,24.00,18.00,35.22,119.87,
06/01/2021,01:10:18.00,4.39,-908.69,-136.23,6.52,12.07,3.35,-47.55,24.00,18.00,35.36,119.87,
06/01/2021,01:10:18.01,-3.42,-926.76,-143.07,6.95,14.02,6.04,-45.15,23.70,17.55,35.60,119.87,
06/01/2021,01:10:18.04,29.30,-935.55,-152.34,2.74,32.68,8.78,-47.10,24.00,21.00,35.22,119.87,
06/01/2021,01:10:18.04,25.39,-925.78,-156.25,3.11,36.10,11.83,-47.55,23.55,20.55,35.46,119.87,
06/01/2021,01:10:18.05,37.11,-919.43,-153.32,2.93,36.34,10.79,-47.55,23.55,20.55,35.27,119.87,
06/01/2021,01:10:18.06,36.62,-910.16,-141.60,3.23,38.60,10.18,-44.70,25.65,16.05,35.36,119.87,
06/01/2021,01:10:18.06,49.32,-924.80,-155.27,5.73,40.55,13.54,-44.70,25.65,16.05,35.27,119.87,
06/01/2021,01:10:18.07,41.50,-937.99,-142.58,3.41,43.35,13.60,-44.70,25.65,16.05,35.27,119.87,
06/01/2021,01:10:18.08,44.92,-949.71,-160.16,2.20,44.82,12.62,-43.80,25.50,17.25,35.36,119.87,
06/01/2021,01:10:18.09,40.53,-966.31,-155.27,0.73,46.34,15.85,-43.80,25.50,17.25,35.36,119.87,
06/01/2021,01:10:18.10,42.48,-969.73,-136.23,1.34,48.72,14.51,-44.55,22.80,16.95,35.07,119.87,
06/01/2021,01:10:18.10,65.92,-988.77,-140.14,-1.28,51.04,16.40,-44.55,22.80,16.95,35.46,119.87,
06/01/2021,01:10:18.11,67.87,-998.05,-128.42,-0.85,54.15,14.94,-43.80,24.00,17.25,35.46,119.87,
06/01/2021,01:10:18.12,99.61,-996.09,-107.42,-1.46,54.76,14.88,-42.90,24.90,17.10,35.27,119.87,
06/01/2021,01:10:18.13,87.89,-1006.84,-96.68,-4.45,57.07,16.10,-45.15,21.90,19.35,35.55,119.87,
06/01/2021,01:10:18.13,82.52,-984.86,-90.82,-3.17,57.01,15.85,-43.05,25.05,16.50,35.27,119.87,
06/01/2021,01:10:18.14,100.10,-994.14,-81.05,-1.95,58.48,16.59,-43.05,25.05,16.50,35.27,119.87,
06/01/2021,01:10:18.15,74.22,-1003.42,-74.22,0.12,58.96,15.06,-43.50,24.75,16.50,35.22,119.87,
06/01/2021,01:10:18.16,62.01,-1006.35,-61.52,-0.49,64.82,12.26,-43.50,24.75,16.50,35.22,119.87,
06/01/2021,01:10:18.17,77.64,-1007.81,-79.10,0.24,62.80,13.17,-43.80,22.80,20.55,35.46,119.87,
06/01/2021,01:10:18.17,73.24,-996.09,-78.12,1.34,64.15,13.90,-43.80,22.80,20.55,35.36,119.87,
06/01/2021,01:10:18.18,70.31,-997.07,-100.10,-0.67,64.09,11.10,-43.80,22.80,20.55,35.36,119.87,
06/01/2021,01:10:18.19,70.80,-1000.98,-118.16,1.59,65.49,12.80,-40.80,24.00,17.70,35.17,119.87,
06/01/2021,01:10:18.19,67.38,-989.75,-135.74,-0.06,63.41,13.23,-40.80,24.00,17.70,35.55,119.87,
06/01/2021,01:10:18.21,34.18,-1012.21,-192.87,-5.24,69.88,12.50,-43.05,24.00,19.50,35.22,119.87,
06/01/2021,01:10:18.21,19.04,-1028.81,-216.80,-7.20,71.89,10.49,-43.05,24.00,19.50,35.55,119.87,
06/01/2021,01:10:18.22,-2.44,-1045.90,-230.47,-9.57,73.41,16.28,-42.00,26.25,18.00,35.22,119.87,
06/01/2021,01:10:18.23,-22.46,-1071.78,-221.19,-11.71,71.40,14.57,-40.80,25.50,17.25,35.36,119.87,
06/01/2021,01:10:18.23,-41.99,-1128.91,-224.12,-15.12,76.16,13.96,-40.80,25.50,17.25,35.55,119.87,
06/01/2021,01:10:18.25,-76.17,-1267.09,-136.23,-21.40,78.66,14.94,-39.75,25.50,18.00,35.36,119.87,
06/01/2021,01:10:18.25,-63.96,-1315.92,-77.64,-20.00,79.88,15.06,-39.75,25.50,18.00,35.36,119.87,
06/01/2021,01:10:18.26,-60.55,-1337.40,-8.79,-21.28,82.01,14.27,-40.05,24.75,18.00,35.60,119.87,
06/01/2021,01:10:18.27,-48.83,-1354.00,57.62,-17.99,80.49,12.50,-40.05,24.75,18.00,35.27,119.87,
06/01/2021,01:10:18.27,-11.72,-1344.24,140.14,-11.16,78.05,8.11,-40.05,24.75,18.00,35.03,119.87,
06/01/2021,01:10:18.29,105.96,-1290.04,234.38,17.01,61.65,4.39,-39.15,22.65,18.15,35.46,119.87,
06/01/2021,01:10:18.29,128.91,-1277.34,195.31,27.80,53.54,6.77,-39.15,22.65,18.15,35.60,119.87,
06/01/2021,01:10:18.30,114.75,-1271.97,146.48,29.94,49.88,3.60,-37.95,23.25,17.70,35.46,119.87,
06/01/2021,01:10:18.30,89.84,-1252.44,112.79,32.07,49.94,4.21,-37.95,23.25,17.70,35.22,119.87,
06/01/2021,01:10:18.31,55.18,-1220.70,56.64,30.49,47.68,2.50,-37.20,25.80,17.25,35.22,119.87,
06/01/2021,01:10:18.33,-46.88,-1114.26,-19.53,27.50,56.65,-3.72,-36.45,26.25,18.45,35.03,119.87,
06/01/2021,01:10:18.33,-88.87,-1045.90,-38.57,24.02,61.28,-2.26,-39.00,25.50,19.80,35.60,119.87,
06/01/2021,01:10:18.34,-139.16,-1003.91,-70.80,22.87,64.82,-6.77,-39.00,25.50,19.80,35.70,119.87,
06/01/2021,01:10:18.34,-178.71,-946.29,-62.99,18.66,68.05,-4.15,-39.00,25.50,19.80,35.75,119.87,
06/01/2021,01:10:18.35,-244.63,-911.13,-63.48,16.83,72.62,-6.04,-36.15,25.35,17.10,35.36,119.87,
06/01/2021,01:10:18.36,-292.97,-860.35,-45.41,16.77,79.76,-4.94,-36.15,25.35,17.10,35.46,119.87,
06/01/2021,01:10:18.37,-397.46,-803.71,27.83,13.29,92.26,0.43,-35.70,26.70,19.05,34.88,119.87,
06/01/2021,01:10:18.38,-421.88,-793.46,62.50,9.27,97.93,2.50,-35.70,26.70,19.05,35.36,119.87,
06/01/2021,01:10:18.38,-430.66,-803.22,91.80,6.71,99.70,3.84,-36.90,25.35,18.60,35.22,119.87,
06/01/2021,01:10:18.39,-428.71,-814.45,123.54,3.90,102.32,9.15,-35.25,23.55,18.00,35.60,119.87,
06/01/2021,01:10:18.39,-418.46,-848.63,131.35,3.84,102.44,12.44,-35.25,23.55,18.00,35.36,119.87,
06/01/2021,01:10:18.41,-310.06,-942.38,144.53,4.02,92.13,15.49,-35.70,25.50,19.05,35.22,119.87,
06/01/2021,01:10:18.42,-251.46,-981.93,130.86,3.17,87.62,18.05,-35.70,25.50,19.05,35.17,119.87,
06/01/2021,01:10:18.42,-188.48,-997.07,112.30,5.06,84.51,18.35,-33.60,26.40,17.85,35.17,119.87,
06/01/2021,01:10:18.43,-139.65,-1030.76,78.12,6.16,77.68,18.35,-33.60,26.40,17.85,35.46,119.87,
06/01/2021,01:10:18.43,-66.89,-1037.60,64.45,5.49,75.49,15.00,-33.60,26.40,17.85,35.46,119.87,
06/01/2021,01:10:18.45,38.09,-1049.80,24.41,8.78,69.39,5.55,-34.05,26.10,18.60,35.27,119.87,
06/01/2021,01:10:18.45,27.83,-1061.04,24.41,6.83,73.11,5.43,-34.05,24.60,20.70,35.22,119.87,
06/01/2021,01:10:18.46,16.11,-1054.69,21.97,9.88,74.15,-3.60,-31.95,27.00,17.25,35.27,119.87,
06/01/2021,01:10:18.47,-3.42,-1040.04,27.83,10.79,74.82,-5.98,-31.95,27.00,17.25,35.36,119.87,
06/01/2021,01:10:18.47,-17.09,-1037.11,32.23,14.09,77.56,-6.71,-31.05,24.60,20.10,35.27,119.87,
06/01/2021,01:10:18.48,-34.67,-1021.97,41.99,13.84,78.90,-8.17,-31.05,24.60,20.10,35.55,119.87,
06/01/2021,01:10:18.49,-86.43,-999.02,27.83,13.78,83.72,-7.32,-32.85,25.65,20.10,35.36,119.87,
06/01/2021,01:10:18.50,-98.14,-995.61,20.51,14.76,83.05,-8.23,-32.85,25.65,20.10,35.46,119.87,
06/01/2021,01:10:18.51,-90.82,-979.98,13.67,14.15,82.26,-6.59,-32.85,25.65,20.10,35.22,119.87,
06/01/2021,01:10:18.51,-106.45,-978.03,15.14,15.49,81.52,-4.88,-31.05,26.10,17.85,35.27,119.87,
06/01/2021,01:10:18.52,-104.00,-960.94,-10.74,14.39,81.65,-0.49,-31.05,26.10,17.85,35.36,119.87,
06/01/2021,01:10:18.56,-130.86,-875.00,-3.42,12.07,73.96,5.61,-30.60,26.10,20.70,35.60,119.87,
06/01/2021,01:10:18.57,-104.98,-889.16,5.37,7.62,70.00,3.05,-30.90,25.50,18.45,35.27,119.87,
06/01/2021,01:10:18.58,-75.20,-906.25,-1.95,8.29,68.05,1.04,-30.90,25.50,18.45,35.46,119.87,
06/01/2021,01:10:18.59,-92.29,-906.25,-4.39,8.41,63.35,1.28,-28.65,26.70,18.45,35.46,119.87,
06/01/2021,01:10:18.59,-86.91,-910.64,-3.42,5.98,65.43,0.00,-28.65,26.70,18.45,35.22,119.87,
06/01/2021,01:10:18.61,-85.94,-942.87,-0.49,8.05,59.51,-4.33,-27.75,26.10,17.85,35.55,119.87,
