rtcDate,rtcTime,aX,aY,aZ,gX,gY,gZ,mX,mY,mZ,imu_degC,output_Hz,
06/01/2021,01:08:08.07,-382.81,-934.57,-124.51,-5.37,1.10,2.13,-4.05,-41.40,51.15,35.55,118.55,
06/01/2021,01:08:08.11,-388.18,-940.43,-130.86,-1.46,-0.61,3.90,-4.05,-43.35,51.15,35.55,118.55,
06/01/2021,01:08:08.13,-401.37,-931.15,-122.56,-2.62,1.77,0.91,-3.30,-43.80,52.20,35.94,118.55,
06/01/2021,01:08:08.13,-392.58,-932.13,-113.77,-2.20,0.98,1.65,-3.30,-43.80,52.20,35.89,118.55,
06/01/2021,01:08:08.14,-388.18,-938.96,-130.37,-2.50,0.30,3.41,-4.35,-41.85,51.45,35.60,118.55,
06/01/2021,01:08:08.16,-397.95,-942.38,-124.02,-1.40,0.49,0.00,-4.05,-42.60,50.70,35.94,118.55,
06/01/2021,01:08:08.16,-386.72,-936.04,-132.81,-1.95,-0.12,0.98,-4.05,-42.60,50.70,35.79,118.55,
06/01/2021,01:08:08.17,-381.35,-938.48,-130.37,-0.49,1.04,0.55,-3.45,-41.25,51.30,35.79,118.55,
06/01/2021,01:08:08.17,-387.21,-941.89,-115.23,-1.59,0.79,0.00,-3.45,-41.25,51.30,35.79,118.55,
06/01/2021,01:08:08.18,-389.16,-952.15,-123.05,-2.32,-0.12,0.73,-3.00,-42.45,51.00,36.08,118.55,
06/01/2021,01:08:08.19,-380.37,-946.29,-131.35,-0.61,0.06,-0.12,-1.65,-42.00,51.00,35.79,118.55,
06/01/2021,01:08:08.20,-389.65,-934.57,-129.39,-0.61,-0.67,-0.24,-1.65,-42.00,51.00,35.79,118.55,
06/01/2021,01:08:08.21,-394.04,-943.85,-130.86,0.43,0.67,-1.52,-1.65,-42.00,51.00,35.70,118.55,
06/01/2021,01:08:08.21,-383.79,-936.52,-137.70,0.00,-0.12,-0.79,-1.65,-42.00,51.00,35.79,118.55,
06/01/2021,01:08:08.22,-390.14,-946.29,-127.44,-1.59,0.67,1.40,-4.05,-41.40,51.15,35.79,118.55,
06/01/2021,01:08:08.22,-394.53,-934.08,-139.65,0.43,1.52,0.55,-4.05,-41.40,51.15,36.22,118.55,
06/01/2021,01:08:08.24,-384.28,-944.82,-128.42,0.73,-1.77,-2.38,-4.05,-42.15,49.95,35.75,118.55,
06/01/2021,01:08:08.25,-396.97,-946.29,-134.28,0.06,0.00,-0.61,-4.35,-43.35,49.65,36.08,118.55,
06/01/2021,01:08:08.25,-387.70,-927.73,-137.21,1.34,1.22,-1.65,-4.35,-43.35,49.65,35.70,118.55,
06/01/2021,01:08:08.26,-397.46,-953.12,-118.65,-0.98,0.00,-1.65,-2.55,-43.35,50.40,35.94,118.55,
06/01/2021,01:08:08.26,-384.77,-938.96,-116.70,-0.24,-0.98,-1.40,-2.55,-43.35,50.40,35.94,118.55,
06/01/2021,01:08:08.28,-395.51,-938.96,-142.09,1.89,-0.06,0.79,-1.80,-40.65,50.40,35.89,118.55,
06/01/2021,01:08:08.29,-390.14,-931.15,-120.12,1.22,-2.26,1.34,-3.45,-41.70,49.80,35.79,118.55,
06/01/2021,01:08:08.29,-401.86,-931.15,-143.07,-1.71,-0.49,-2.32,-3.45,-41.70,49.80,35.94,118.55,
06/01/2021,01:08:08.30,-387.70,-942.87,-125.49,-2.38,-1.40,-2.32,-3.45,-41.70,49.80,35.94,118.55,
06/01/2021,01:08:08.30,-406.74,-949.22,-136.72,-0.85,-0.18,-0.79,-3.45,-41.70,49.80,35.94,118.55,
06/01/2021,01:08:08.32,-396.00,-937.50,-133.30,0.49,-0.30,-0.24,-2.40,-42.45,50.25,35.98,118.55,
06/01/2021,01:08:08.33,-395.51,-937.50,-142.09,0.00,0.06,0.18,-4.20,-42.75,51.00,35.89,118.55,
06/01/2021,01:08:08.33,-398.44,-930.66,-133.30,0.55,-0.55,0.61,-4.20,-42.75,51.00,35.79,118.55,
06/01/2021,01:08:08.34,-397.46,-942.87,-144.04,0.85,-1.22,-2.07,-4.50,-42.00,51.00,35.55,118.55,
06/01/2021,01:08:08.34,-392.58,-940.43,-147.46,-0.06,-2.50,-0.67,-4.50,-42.00,51.00,35.75,118.55,
06/01/2021,01:08:08.36,-391.60,-936.52,-125.00,1.71,0.67,0.67,-4.05,-41.85,49.35,35.94,118.55,
06/01/2021,01:08:08.36,-389.16,-937.99,-133.79,0.73,-1.89,-1.59,-3.00,-41.70,49.80,35.89,118.55,
06/01/2021,01:08:08.37,-396.48,-940.43,-132.32,-0.06,-2.13,-1.52,-3.00,-41.70,49.80,35.60,118.55,
06/01/2021,01:08:08.38,-389.16,-940.43,-134.28,-0.49,0.43,-0.06,-3.30,-41.40,50.40,35.89,118.55,
06/01/2021,01:08:08.38,-399.41,-930.66,-156.25,-2.32,-0.12,-1.40,-3.30,-41.40,50.40,35.75,118.55,
06/01/2021,01:08:08.39,-400.39,-943.36,-141.11,-0.12,-0.67,-0.67,-3.30,-41.40,50.40,35.94,118.55,
06/01/2021,01:08:08.40,-406.25,-935.55,-135.25,-0.98,-1.65,-0.18,-2.40,-41.25,48.00,35.70,118.55,
06/01/2021,01:08:08.41,-409.67,-939.45,-139.16,-0.30,-0.85,-2.56,-2.40,-41.25,48.00,35.60,118.55,
06/01/2021,01:08:08.42,-396.00,-945.80,-127.93,-2.93,0.30,-1.95,-3.00,-43.20,51.00,35.75,118.55,
06/01/2021,01:08:08.42,-411.13,-949.71,-135.74,-0.91,0.24,-0.55,-3.00,-43.20,51.00,35.79,118.55,
06/01/2021,01:08:08.43,-407.23,-942.38,-134.77,-2.26,-0.18,0.12,-3.30,-42.15,51.45,35.75,118.55,
06/01/2021,01:08:08.44,-407.71,-944.82,-133.30,-0.06,1.04,-0.37,-2.70,-42.00,48.30,35.89,118.55,
06/01/2021,01:08:08.45,-409.18,-942.87,-119.14,0.49,1.77,0.43,-5.70,-43.20,51.30,35.79,118.55,
06/01/2021,01:08:08.46,-393.55,-937.50,-127.93,0.37,-0.91,1.16,-2.70,-43.95,49.80,35.94,118.55,
06/01/2021,01:08:08.46,-416.02,-940.92,-135.74,1.10,0.30,2.01,-2.70,-43.95,49.80,35.89,118.55,
06/01/2021,01:08:08.47,-396.00,-944.82,-142.58,0.06,0.00,0.24,-4.20,-42.45,50.25,36.13,118.55,
06/01/2021,01:08:08.48,-412.11,-953.12,-133.30,-2.93,2.26,-0.49,-4.20,-42.45,50.25,35.55,118.55,
06/01/2021,01:08:08.49,-403.32,-935.06,-124.51,0.24,1.28,1.28,-2.10,-44.55,51.90,35.94,118.55,
06/01/2021,01:08:08.49,-410.64,-943.36,-128.91,0.12,0.55,2.26,-2.10,-44.55,51.90,35.70,118.55,
06/01/2021,01:08:08.50,-402.83,-938.48,-135.74,-0.49,-0.24,0.43,-2.10,-44.55,51.90,35.89,118.55,
06/01/2021,01:08:08.51,-403.81,-946.78,-135.74,-1.52,1.46,0.06,-3.45,-41.70,50.25,36.13,118.55,
06/01/2021,01:08:08.52,-410.64,-953.61,-140.14,-3.05,-0.37,-0.55,-1.80,-43.05,48.90,35.60,118.55,
06/01/2021,01:08:08.53,-392.58,-941.41,-125.49,-2.62,0.37,-0.24,-4.50,-42.00,50.55,35.75,118.55,
06/01/2021,01:08:08.53,-406.25,-925.29,-134.28,-2.13,2.01,-0.98,-4.50,-42.00,50.55,35.79,118.55,
06/01/2021,01:08:08.54,-402.83,-937.50,-136.72,-1.77,-0.37,1.52,-3.30,-41.85,51.15,35.89,118.55,
06/01/2021,01:08:08.55,-405.76,-942.87,-135.74,-1.04,-0.18,2.07,-3.75,-40.50,50.55,35.79,118.55,
06/01/2021,01:08:08.55,-401.37,-942.87,-126.95,-2.62,-0.24,4.45,-3.75,-40.50,50.55,35.94,118.56,
06/01/2021,01:08:08.57,-412.60,-945.31,-144.53,-4.57,2.56,2.32,-1.95,-39.75,48.75,35.89,118.55,
06/01/2021,01:08:08.57,-404.30,-941.41,-136.23,-2.50,1.52,1.59,-1.95,-39.75,48.75,35.94,118.55,
06/01/2021,01:08:08.58,-393.07,-938.48,-131.35,-1.52,2.38,3.17,-3.75,-42.45,50.25,35.94,118.55,
06/01/2021,01:08:08.59,-394.04,-951.66,-139.16,-2.44,0.06,4.02,-3.75,-42.45,50.25,35.94,118.56,
06/01/2021,01:08:08.62,-412.11,-933.59,-130.86,-4.51,-0.73,5.55,-1.95,-42.00,51.00,35.94,118.55,
06/01/2021,01:08:08.65,-377.93,-933.11,-129.39,-5.49,1.46,1.46,-4.20,-43.20,51.00,35.89,118.55,
06/01/2021,01:08:08.65,-394.53,-935.06,-111.82,-4.82,-0.30,2.87,-4.05,-42.15,51.15,35.79,118.55,
06/01/2021,01:08:08.66,-375.00,-951.17,-116.70,-3.84,-1.89,4.70,-4.05,-42.15,51.15,35.89,118.55,
06/01/2021,01:08:08.66,-384.28,-935.06,-116.21,-3.84,0.79,4.88,-4.05,-42.15,51.15,35.79,118.55,
06/01/2021,01:08:08.67,-379.39,-937.50,-123.05,-1.59,-1.40,5.00,-3.75,-42.75,51.00,35.55,118.55,
06/01/2021,01:08:08.69,-389.16,-933.59,-108.89,-3.23,-0.91,2.26,-3.75,-42.75,51.00,35.89,118.55,
06/01/2021,01:08:08.69,-403.32,-947.75,-118.65,-2.38,0.55,3.54,-5.55,-44.10,50.70,35.94,118.55,
06/01/2021,01:08:08.70,-402.83,-942.87,-109.38,-2.07,-0.73,3.72,-3.45,-42.45,51.30,35.55,118.55,
06/01/2021,01:08:08.70,-389.16,-936.04,-127.93,-3.29,-0.37,1.83,-3.45,-42.45,51.30,35.70,118.55,
06/01/2021,01:08:08.71,-401.37,-952.15,-130.37,-3.66,-2.44,4.15,-4.05,-42.15,50.40,35.60,118.55,
06/01/2021,01:08:08.72,-396.48,-947.27,-118.65,-3.41,-0.37,2.62,-1.20,-42.45,49.50,35.79,118.55,
06/01/2021,01:08:08.73,-396.48,-954.10,-111.82,-0.79,-0.98,3.84,-4.20,-43.20,51.60,36.22,118.55,
06/01/2021,01:08:08.74,-375.00,-948.73,-109.38,-3.96,-1.89,3.84,-2.85,-42.60,50.40,35.94,118.55,
06/01/2021,01:08:08.74,-397.95,-951.17,-113.28,-0.06,-1.04,2.13,-2.85,-42.60,50.40,35.79,118.55,
06/01/2021,01:08:08.75,-402.34,-948.73,-115.23,-0.91,-1.28,3.84,-2.85,-42.60,50.40,35.70,118.55,
06/01/2021,01:08:08.76,-402.83,-953.61,-134.28,-4.33,-1.22,1.46,-2.70,-42.00,49.80,35.79,118.55,
06/01/2021,01:08:08.77,-382.32,-940.92,-105.47,-2.20,-2.50,3.23,-2.70,-42.00,49.80,35.79,118.55,
06/01/2021,01:08:08.78,-389.16,-956.05,-118.16,-0.91,-0.98,0.18,-2.55,-39.90,51.15,35.89,118.55,
06/01/2021,01:08:08.78,-380.37,-945.31,-116.21,0.73,-1.59,4.27,-2.55,-39.90,51.15,35.89,118.55,
06/01/2021,01:08:08.79,-382.32,-950.20,-123.54,-0.37,-1.95,2.26,-3.75,-41.70,51.30,35.70,118.55,
06/01/2021,01:08:08.79,-389.65,-942.38,-126.46,-0.98,-1.34,4.39,-3.75,-41.70,51.30,35.89,118.55,
06/01/2021,01:08:08.81,-404.30,-949.71,-133.79,-1.10,-2.87,5.06,-3.00,-42.45,49.80,35.94,118.55,
06/01/2021,01:08:08.82,-381.35,-956.05,-125.49,-1.71,-1.65,2.13,-3.00,-42.45,49.80,35.89,118.55,
06/01/2021,01:08:08.82,-374.02,-955.57,-119.14,-2.93,-1.77,1.22,-3.30,-43.35,51.45,35.75,118.55,
06/01/2021,01:08:08.83,-397.95,-958.98,-133.30,-3.60,-2.32,0.18,-3.45,-42.75,50.25,35.55,118.55,
06/01/2021,01:08:08.83,-387.70,-958.01,-122.07,-0.30,-3.54,2.99,-3.45,-42.75,50.25,35.60,118.55,
06/01/2021,01:08:08.85,-388.18,-954.10,-136.23,-2.62,-5.49,3.72,-3.00,-42.45,50.55,35.79,118.55,
06/01/2021,01:08:08.85,-387.21,-947.75,-131.84,-1.71,-0.61,2.62,-3.00,-42.45,50.55,35.79,118.55,
06/01/2021,01:08:08.86,-379.88,-949.22,-146.00,0.18,-3.54,0.91,-3.00,-42.45,50.55,35.89,118.55,
06/01/2021,01:08:08.87,-400.88,-950.20,-129.88,-1.77,-1.28,2.13,-3.30,-42.60,50.70,35.75,118.55,
06/01/2021,01:08:08.87,-405.76,-943.85,-138.67,-2.20,-2.80,1.28,-3.30,-42.60,50.70,35.75,118.55,
06/01/2021,01:08:08.89,-387.21,-946.78,-143.07,-1.28,-3.60,3.05,-3.75,-41.25,52.05,35.79,118.55,
06/01/2021,01:08:08.89,-381.84,-942.87,-142.09,0.37,-0.61,0.91,-3.75,-41.25,52.05,35.89,118.55,
06/01/2021,01:08:08.90,-395.51,-940.92,-147.95,-2.01,-4.57,0.37,-2.70,-41.70,50.25,35.89,118.55,
06/01/2021,01:08:08.91,-378.42,-965.33,-141.60,-4.09,-2.80,0.12,-2.85,-43.05,49.95,35.89,118.55,
06/01/2021,01:08:08.91,-385.25,-944.82,-150.88,-0.24,-2.07,0.79,-2.85,-43.05,49.95,35.75,118.55,
06/01/2021,01:08:08.93,-368.16,-949.22,-152.83,-3.17,-4.21,0.61,-2.10,-41.85,49.95,35.79,118.55,
06/01/2021,01:08:08.93,-378.42,-940.92,-139.16,-3.23,-2.56,4.70,-2.10,-41.85,49.95,35.79,118.55,
06/01/2021,01:08:08.94,-396.48,-948.24,-145.02,-3.05,-1.83,0.12,-3.60,-42.15,50.70,35.79,118.55,
06/01/2021,01:08:08.95,-374.51,-948.73,-140.62,-2.62,-2.87,0.43,-3.60,-42.15,50.70,35.94,118.55,
06/01/2021,01:08:08.95,-392.58,-955.57,-149.41,-2.26,-2.01,2.13,-3.60,-42.15,50.70,36.08,118.55,
06/01/2021,01:08:08.96,-389.65,-949.22,-147.95,-4.21,-0.79,0.85,-2.10,-42.15,48.90,35.75,118.55,
06/01/2021,01:08:08.97,-379.39,-962.89,-161.62,-4.15,-1.77,-1.04,-1.65,-40.80,51.30,35.89,118.55,
06/01/2021,01:08:08.98,-389.65,-937.99,-148.44,-3.05,-0.91,-0.37,-1.95,-41.70,51.30,35.79,118.55,
06/01/2021,01:08:08.99,-387.21,-941.89,-146.48,-4.70,-2.13,-0.85,-1.95,-41.70,51.30,35.94,118.55,
06/01/2021,01:08:08.99,-391.60,-947.75,-151.37,-4.27,-3.60,-0.73,-4.05,-41.85,52.95,35.70,118.55,
06/01/2021,01:08:09.00,-390.14,-947.27,-131.84,-3.05,-1.28,1.52,-3.60,-40.65,51.90,35.79,118.55,
06/01/2021,01:08:09.01,-387.70,-952.64,-147.46,-5.18,-3.54,1.52,-3.60,-41.40,51.15,35.55,118.55,
06/01/2021,01:08:09.02,-393.55,-947.75,-150.88,-6.52,-2.32,1.16,-3.60,-41.40,51.15,35.94,118.55,
06/01/2021,01:08:09.02,-394.04,-954.59,-143.55,-4.76,-2.68,-0.55,-3.60,-41.40,51.15,35.79,118.55,
06/01/2021,01:08:09.03,-401.37,-942.87,-139.65,-5.18,-2.13,-0.61,-3.60,-42.60,51.90,35.94,118.55,
06/01/2021,01:08:09.04,-381.35,-953.61,-129.39,-4.02,-2.62,0.30,-3.60,-42.60,51.90,35.89,118.56,
06/01/2021,01:08:09.05,-396.48,-953.61,-140.62,-3.78,-2.32,-0.18,-4.20,-42.45,50.25,35.94,118.55,
06/01/2021,01:08:09.06,-384.77,-945.31,-141.60,-5.00,-2.26,-2.20,-3.60,-42.15,50.70,35.89,118.55,
06/01/2021,01:08:09.06,-394.53,-955.08,-138.67,-6.46,-2.80,1.65,-3.60,-42.15,50.70,35.75,118.55,
06/01/2021,01:08:09.07,-400.88,-943.85,-138.67,-3.23,-1.16,-1.04,-3.00,-42.75,52.35,35.75,118.56,
06/01/2021,01:08:09.08,-394.04,-934.08,-132.32,-5.61,-2.68,0.00,-3.00,-42.75,52.35,35.94,118.56,
06/01/2021,01:08:09.09,-381.84,-942.38,-133.79,-4.45,-0.61,-2.62,-4.50,-42.00,51.00,35.70,118.55,
06/01/2021,01:08:09.13,-396.97,-943.36,-127.44,-4.51,-2.01,0.24,-3.60,-43.35,52.20,35.75,118.55,
06/01/2021,01:08:09.14,-396.00,-944.34,-131.84,-3.78,1.22,0.91,-5.70,-42.75,52.05,35.94,118.55,
06/01/2021,01:08:09.15,-401.37,-939.45,-122.56,-1.28,-2.32,-0.18,-5.70,-42.75,52.05,35.94,118.55,
06/01/2021,01:08:09.15,-404.30,-949.22,-110.84,-3.41,-0.79,-0.18,-5.25,-42.75,49.50,35.75,118.55,
06/01/2021,01:08:09.17,-407.23,-942.38,-121.09,-2.93,1.52,0.00,-2.55,-43.35,51.15,35.89,118.55,
06/01/2021,01:08:09.17,-406.74,-937.50,-132.32,-2.93,-2.20,-1.34,-2.55,-43.35,51.15,36.08,118.55,
06/01/2021,01:08:09.18,-400.39,-937.50,-135.74,-2.38,1.28,-0.98,-3.60,-42.15,49.95,35.89,118.55,
06/01/2021,01:08:09.19,-405.27,-940.43,-123.54,-0.91,-0.30,-0.06,-3.60,-42.15,49.95,35.89,118.55,
06/01/2021,01:08:09.19,-408.20,-952.64,-129.88,-2.01,1.40,-0.73,-5.10,-41.85,50.70,35.60,118.55,
06/01/2021,01:08:09.20,-412.11,-942.87,-118.65,-2.20,2.01,2.99,-2.70,-39.75,48.00,35.70,118.55,
06/01/2021,01:08:09.21,-399.90,-947.27,-130.37,-0.61,0.67,-0.24,-3.00,-42.75,51.00,36.08,118.55,
06/01/2021,01:08:09.22,-402.83,-944.34,-131.35,-3.41,-1.04,-1.65,-3.00,-42.75,51.00,35.79,118.55,
06/01/2021,01:08:09.23,-396.48,-939.45,-145.51,-0.91,1.40,2.01,-3.00,-42.75,51.00,35.89,118.55,
06/01/2021,01:08:09.23,-404.30,-942.38,-134.28,-1.65,-2.44,-1.71,-3.45,-42.75,50.55,35.94,118.55,
06/01/2021,01:08:09.24,-397.95,-941.89,-133.79,-3.17,0.12,-0.30,-3.45,-42.75,50.55,35.94,118.55,
06/01/2021,01:08:09.25,-397.95,-948.73,-138.18,-1.59,0.30,1.52,-2.40,-43.50,50.55,35.75,118.55,
06/01/2021,01:08:09.26,-378.42,-943.85,-120.61,0.24,-0.37,0.43,-3.60,-43.05,50.40,35.89,118.55,
06/01/2021,01:08:09.27,-388.67,-942.87,-138.18,-2.62,2.07,1.04,-3.60,-43.05,50.40,35.70,118.55,
06/01/2021,01:08:09.27,-388.18,-939.94,-141.60,-1.65,2.74,0.67,-4.35,-42.60,49.95,35.94,118.55,
06/01/2021,01:08:09.28,-376.46,-943.36,-138.67,-0.55,-0.12,0.12,-4.35,-42.60,49.95,35.55,118.55,
06/01/2021,01:08:09.29,-386.23,-941.41,-131.84,-2.38,0.98,-0.55,-3.00,-42.00,50.25,35.89,118.55,
06/01/2021,01:08:09.30,-398.44,-941.41,-140.62,-0.79,2.80,0.30,-3.30,-41.10,50.70,35.55,118.55,
06/01/2021,01:08:09.30,-386.72,-939.94,-149.90,-2.74,0.98,0.00,-3.30,-41.10,50.70,35.79,118.55,
06/01/2021,01:08:09.31,-378.42,-945.80,-136.23,-0.37,0.61,0.43,-3.30,-41.10,50.70,35.75,118.55,
06/01/2021,01:08:09.32,-392.58,-952.64,-136.72,-0.91,1.83,0.24,-3.30,-41.10,50.70,35.79,118.55,
06/01/2021,01:08:09.33,-388.67,-938.96,-147.46,-2.32,5.79,1.28,-3.75,-40.50,50.25,35.75,118.55,
06/01/2021,01:08:09.34,-380.37,-952.64,-149.90,-2.80,-0.55,0.91,-4.35,-42.60,50.70,35.89,118.55,
06/01/2021,01:08:09.34,-382.32,-935.55,-156.74,-0.85,-0.18,1.28,-4.35,-42.60,50.70,35.89,118.55,
06/01/2021,01:08:09.35,-375.49,-937.50,-128.42,0.24,0.43,1.34,-4.80,-42.60,51.15,35.75,118.55,
06/01/2021,01:08:09.36,-395.02,-947.27,-137.70,-2.62,1.10,-0.37,-4.80,-42.60,51.15,35.60,118.55,
06/01/2021,01:08:09.36,-381.84,-943.36,-141.60,-3.23,0.61,-0.06,-4.20,-40.80,49.05,35.75,118.55,
06/01/2021,01:08:09.38,-381.84,-934.08,-134.77,-0.67,1.28,1.83,-2.40,-41.25,49.05,35.60,118.55,
06/01/2021,01:08:09.38,-398.44,-960.45,-141.11,-0.43,1.28,0.79,-4.20,-42.45,51.30,35.75,118.55,
06/01/2021,01:08:09.39,-391.11,-934.57,-132.81,-0.18,1.34,1.77,-3.00,-42.00,51.00,35.70,118.55,
06/01/2021,01:08:09.39,-379.88,-945.31,-133.79,-2.50,1.71,0.73,-3.00,-42.00,51.00,35.79,118.55,
06/01/2021,01:08:09.40,-375.98,-945.31,-143.55,0.00,-0.73,1.65,-3.00,-42.00,51.00,35.75,118.55,
06/01/2021,01:08:09.42,-381.35,-948.73,-134.77,-3.23,2.74,-2.01,-3.45,-42.00,49.50,35.79,118.55,
06/01/2021,01:08:09.42,-377.93,-933.11,-142.09,-2.26,2.32,0.00,-3.45,-42.00,49.50,35.89,118.55,
06/01/2021,01:08:09.43,-382.32,-942.87,-149.90,-2.01,1.65,1.77,-5.55,-41.40,49.65,35.94,118.55,
06/01/2021,01:08:09.43,-377.93,-939.45,-142.58,-1.16,1.04,0.91,-5.55,-41.40,49.65,35.75,118.55,
06/01/2021,01:08:09.44,-372.56,-942.87,-143.07,-1.22,0.43,1.34,-3.00,-41.70,51.00,35.60,118.55,
06/01/2021,01:08:09.46,-384.28,-952.15,-147.46,-3.54,-1.59,1.28,-2.70,-41.25,49.05,35.55,118.55,
06/01/2021,01:08:09.46,-381.84,-939.45,-149.41,-2.07,1.52,-0.24,-4.20,-42.00,53.10,35.79,118.55,
06/01/2021,01:08:09.47,-372.56,-949.71,-133.79,-0.98,0.37,2.93,-4.20,-42.00,53.10,36.08,118.55,
06/01/2021,01:08:09.47,-382.32,-952.15,-152.34,-2.80,-2.01,-1.89,-2.70,-41.70,51.60,35.79,118.55,
06/01/2021,01:08:09.48,-386.23,-948.73,-147.95,-3.90,0.30,0.91,-4.20,-42.75,52.05,35.79,118.56,
06/01/2021,01:08:09.50,-385.74,-941.41,-140.62,-3.41,2.13,0.49,-4.20,-42.75,52.05,35.60,118.55,
06/01/2021,01:08:09.50,-388.67,-948.24,-133.30,-1.89,0.85,0.00,-4.20,-41.70,51.30,35.79,118.55,
06/01/2021,01:08:09.51,-385.25,-939.94,-144.53,-2.87,0.18,-0.43,-4.20,-41.70,51.30,35.89,118.55,
06/01/2021,01:08:09.51,-374.02,-949.71,-137.70,-2.44,0.67,-1.10,-4.20,-41.70,51.30,35.94,118.56,
06/01/2021,01:08:09.52,-390.14,-943.85,-137.70,-3.29,2.20,-1.95,-3.30,-42.15,52.65,35.70,118.56,
06/01/2021,01:08:09.52,-384.28,-943.85,-132.81,-0.79,-0.79,2.74,-3.30,-42.15,52.65,35.75,118.56,
06/01/2021,01:08:09.54,-377.93,-937.99,-138.18,-2.07,-0.85,2.56,-3.00,-42.45,49.80,36.08,118.55,
06/01/2021,01:08:09.55,-390.62,-946.29,-129.88,-3.66,-0.61,-1.89,-3.00,-42.45,49.80,35.60,118.56,
06/01/2021,01:08:09.55,-386.72,-946.29,-140.62,-0.55,0.37,2.62,-2.55,-42.15,50.40,35.89,118.56,
06/01/2021,01:08:09.56,-374.02,-931.64,-145.51,-1.95,1.34,-1.16,-4.20,-42.75,50.55,35.79,118.56,
06/01/2021,01:08:09.56,-388.18,-937.01,-128.91,-1.10,0.49,0.24,-4.20,-42.75,50.55,35.94,118.56,
06/01/2021,01:08:09.58,-381.35,-950.68,-133.30,-2.26,2.01,-0.43,-4.50,-41.70,48.30,35.94,118.56,
06/01/2021,01:08:09.59,-379.39,-941.89,-137.70,-2.44,3.05,-1.10,-4.50,-41.70,48.30,35.89,118.56,
06/01/2021,01:08:09.59,-378.42,-924.32,-124.02,-0.73,1.10,0.49,-4.05,-42.15,51.45,35.70,118.56,
06/01/2021,01:08:09.60,-389.16,-937.99,-134.77,0.49,0.73,0.91,-4.05,-42.15,51.45,35.94,118.56,
06/01/2021,01:08:09.63,-383.79,-950.68,-136.72,-1.04,3.05,0.12,-6.00,-42.00,49.50,35.75,118.55,
06/01/2021,01:08:09.66,-387.21,-950.20,-132.32,0.30,0.55,0.37,-4.80,-43.05,51.15,35.79,118.55,
06/01/2021,01:08:09.66,-389.16,-947.27,-129.88,-0.49,0.30,0.85,-4.95,-41.70,51.30,35.79,118.55,
06/01/2021,01:08:09.67,-393.55,-950.20,-127.44,-1.16,1.77,-0.37,-4.95,-41.70,51.30,35.89,118.55,
06/01/2021,01:08:09.67,-398.93,-934.57,-127.44,0.49,3.48,-0.73,-4.95,-41.70,51.30,35.79,118.55,
06/01/2021,01:08:09.68,-387.70,-945.31,-141.60,1.59,1.59,2.13,-4.80,-41.10,50.40,36.08,118.55,
06/01/2021,01:08:09.70,-395.02,-953.61,-123.54,-1.52,2.07,-0.37,-4.80,-41.10,50.40,35.94,118.55,
06/01/2021,01:08:09.70,-393.07,-934.57,-142.58,-1.59,0.00,1.65,-3.30,-41.85,51.15,35.79,118.55,
06/01/2021,01:08:09.71,-392.09,-938.96,-132.32,0.98,-1.89,1.77,-3.30,-41.85,51.15,35.79,118.55,
06/01/2021,01:08:09.71,-376.95,-948.73,-117.19,0.12,-1.22,1.83,-4.35,-41.10,50.40,35.94,118.55,
06/01/2021,01:08:09.72,-402.83,-940.43,-126.95,-0.55,1.83,3.66,-3.60,-40.35,50.40,35.89,118.55,
06/01/2021,01:08:09.73,-391.11,-934.08,-134.77,0.73,-0.37,3.78,-3.60,-40.35,50.40,35.79,118.55,
06/01/2021,01:08:09.74,-383.30,-952.64,-145.51,-0.24,1.28,1.59,-3.00,-43.50,51.00,35.98,118.55,
06/01/2021,01:08:09.75,-386.23,-942.38,-139.65,-0.06,-1.28,2.07,-3.00,-43.50,51.00,35.94,118.55,
06/01/2021,01:08:09.75,-397.95,-959.47,-140.14,-0.30,0.06,3.66,-2.55,-40.65,49.65,35.79,118.55,
06/01/2021,01:08:09.76,-392.58,-939.45,-131.35,-0.43,0.55,3.05,-2.55,-40.65,49.65,35.75,118.55,
06/01/2021,01:08:09.77,-382.81,-938.48,-133.30,-0.49,-0.85,1.22,-2.55,-40.65,49.65,35.89,118.55,
06/01/2021,01:08:09.78,-383.79,-951.17,-130.37,-0.73,-1.22,3.96,-4.05,-40.65,48.90,35.79,118.55,
06/01/2021,01:08:09.79,-386.72,-954.59,-148.44,0.00,-0.06,2.80,-4.05,-40.65,48.90,35.89,118.55,
06/01/2021,01:08:09.79,-386.23,-944.82,-136.23,0.55,0.12,1.52,-4.05,-41.85,50.70,35.55,118.55,
06/01/2021,01:08:09.80,-396.00,-953.61,-141.11,1.65,-0.06,1.16,-4.05,-41.85,50.70,35.75,118.55,
06/01/2021,01:08:09.80,-394.53,-939.94,-137.21,-0.37,-0.49,2.20,-3.75,-42.75,51.00,35.79,118.55,
06/01/2021,01:08:09.82,-394.53,-941.89,-148.93,-0.49,-0.55,2.87,-4.50,-41.70,51.00,35.60,118.55,
06/01/2021,01:08:09.83,-390.62,-954.10,-139.65,-0.12,2.13,2.74,-4.50,-41.70,51.00,35.70,118.55,
06/01/2021,01:08:09.83,-394.53,-943.85,-141.11,0.55,-0.49,4.27,-2.70,-42.45,50.55,35.89,118.55,
06/01/2021,01:08:09.84,-388.18,-957.03,-147.46,-1.28,-0.43,2.44,-2.70,-42.45,50.55,35.89,118.55,
06/01/2021,01:08:09.84,-373.05,-943.85,-150.88,-2.07,-0.06,3.96,-3.00,-42.45,51.60,35.94,118.55,
06/01/2021,01:08:09.86,-402.83,-941.89,-140.14,-0.67,1.52,4.09,-4.20,-42.75,51.00,35.94,118.55,
06/01/2021,01:08:09.87,-385.25,-946.78,-138.67,-3.54,-2.07,4.21,-4.20,-42.75,51.00,35.89,118.55,
06/01/2021,01:08:09.87,-387.70,-943.85,-142.58,-3.17,0.30,3.90,-4.20,-42.75,51.00,35.79,118.55,
06/01/2021,01:08:09.88,-382.32,-938.48,-146.48,-2.62,-1.40,2.80,-4.20,-42.75,51.00,35.94,118.55,
06/01/2021,01:08:09.88,-380.86,-941.89,-140.62,1.52,-0.91,2.80,-3.30,-42.15,51.90,35.60,118.55,
06/01/2021,01:08:09.89,-381.84,-954.59,-137.70,-0.37,2.26,3.90,-3.30,-42.15,51.90,35.55,118.55,
06/01/2021,01:08:09.91,-380.86,-943.85,-146.00,-1.83,2.50,6.95,-3.30,-43.05,49.65,35.60,118.55,
06/01/2021,01:08:09.91,-373.05,-961.43,-138.18,-3.72,1.28,2.99,-2.85,-42.60,49.35,35.79,118.55,
06/01/2021,01:08:09.92,-395.51,-942.87,-136.23,-2.44,-0.61,4.45,-2.85,-42.60,49.35,35.89,118.55,
06/01/2021,01:08:09.92,-379.88,-929.69,-137.21,-2.26,0.85,4.15,-4.95,-43.20,50.55,35.94,118.55,
06/01/2021,01:08:09.93,-372.56,-952.64,-147.95,-0.55,-1.59,4.39,-4.95,-43.20,50.55,35.75,118.56,
06/01/2021,01:08:09.94,-382.81,-934.08,-128.91,-2.26,-0.49,3.90,-2.55,-40.65,49.95,35.89,118.55,
06/01/2021,01:08:09.95,-389.16,-945.80,-133.30,-3.23,-0.18,2.50,-3.30,-43.05,50.40,35.89,118.55,
06/01/2021,01:08:09.96,-378.91,-949.71,-129.88,-2.13,0.49,5.06,-3.30,-43.05,50.40,35.79,118.55,
06/01/2021,01:08:09.96,-377.44,-958.01,-131.84,-2.93,0.00,1.04,-3.30,-43.05,50.40,35.79,118.56,
06/01/2021,01:08:09.97,-370.61,-949.71,-138.67,-1.34,-0.61,2.99,-3.30,-43.05,50.40,35.98,118.56,
06/01/2021,01:08:09.98,-388.67,-945.31,-133.79,-5.00,0.37,1.34,-3.30,-41.40,51.15,35.89,118.55,
06/01/2021,01:08:09.99,-382.32,-939.94,-129.39,-1.10,-3.54,1.46,-4.20,-42.00,49.80,35.70,118.56,
06/01/2021,01:08:10.00,-380.37,-942.87,-131.84,-1.16,-2.13,3.90,-4.20,-42.00,49.80,35.89,118.56,
06/01/2021,01:08:10.00,-380.86,-935.55,-131.35,-3.05,0.91,2.68,-4.35,-41.10,51.15,35.89,118.56,
06/01/2021,01:08:10.01,-381.84,-948.73,-118.65,-3.60,-1.28,1.52,-4.35,-41.10,51.15,35.75,118.56,
06/01/2021,01:08:10.01,-392.58,-935.55,-132.32,-3.11,-2.74,3.17,-3.75,-40.80,50.25,35.94,118.56,
06/01/2021,01:08:10.03,-384.28,-947.27,-136.72,-2.80,-1.59,1.89,-2.70,-42.00,51.00,35.60,118.56,
06/01/2021,01:08:10.04,-381.84,-945.31,-131.84,1.28,-2.44,4.09,-2.70,-42.00,51.00,35.94,118.56,
06/01/2021,01:08:10.04,-378.42,-948.73,-128.42,-3.48,-2.38,0.00,-2.70,-42.45,50.55,35.79,118.56,
06/01/2021,01:08:10.05,-385.25,-954.10,-132.81,-3.11,-2.20,1.10,-2.70,-42.45,50.55,35.55,118.56,
06/01/2021,01:08:10.05,-391.60,-942.38,-131.35,-2.74,-2.56,2.38,-2.70,-42.45,50.55,35.79,118.56,
06/01/2021,01:08:10.07,-384.77,-939.94,-124.02,-2.44,-0.49,0.49,-2.85,-41.85,49.65,36.13,118.56,
06/01/2021,01:08:10.08,-384.77,-954.10,-125.00,-3.29,-1.89,0.49,-4.35,-44.55,52.20,35.79,118.56,
06/01/2021,01:08:10.08,-381.84,-949.71,-125.98,-1.71,-2.87,4.02,-2.55,-41.40,50.70,35.70,118.56,
06/01/2021,01:08:10.09,-403.32,-946.29,-124.02,-2.07,-2.87,4.76,-2.55,-41.40,50.70,35.89,118.56,
06/01/2021,01:08:10.09,-400.88,-940.43,-132.32,-1.77,-5.06,1.40,-3.45,-42.00,50.25,35.70,118.56,
06/01/2021,01:08:10.14,-384.28,-949.71,-129.39,-1.71,-2.56,0.91,-3.30,-41.85,49.95,35.94,118.55,
06/01/2021,01:08:10.15,-374.51,-942.87,-122.56,-1.71,-4.33,0.30,-4.80,-42.60,51.90,35.75,118.55,
06/01/2021,01:08:10.16,-394.53,-936.52,-125.49,-1.22,-2.93,0.67,-4.80,-42.60,51.90,35.60,118.55,
06/01/2021,01:08:10.16,-382.32,-943.85,-124.02,-4.82,-1.52,-0.79,-2.85,-43.35,50.70,35.94,118.55,
06/01/2021,01:08:10.17,-396.97,-949.22,-127.93,0.24,-3.05,4.15,-2.85,-43.35,50.70,35.94,118.55,
06/01/2021,01:08:10.19,-391.60,-949.71,-111.33,-1.59,-2.74,0.73,-2.40,-41.70,50.55,35.89,118.55,
06/01/2021,01:08:10.19,-382.32,-925.78,-134.28,-2.38,-1.16,-0.49,-3.00,-42.45,51.30,35.98,118.55,
06/01/2021,01:08:10.20,-397.46,-948.24,-122.56,-1.04,-1.34,4.15,-3.00,-42.45,51.30,35.89,118.55,
06/01/2021,01:08:10.20,-372.56,-938.48,-146.97,0.06,-2.56,0.61,-3.00,-42.75,52.35,35.94,118.55,
06/01/2021,01:08:10.21,-396.48,-946.29,-134.28,0.55,-3.60,2.44,-3.00,-42.75,52.35,35.70,118.55,
06/01/2021,01:08:10.23,-376.95,-949.22,-121.58,-1.71,-3.60,1.83,-2.55,-43.05,50.40,35.79,118.55,
06/01/2021,01:08:10.23,-386.72,-946.78,-156.74,-0.55,-2.68,1.83,-2.55,-43.05,50.40,35.75,118.55,
06/01/2021,01:08:10.24,-381.35,-954.10,-129.88,-2.62,-3.35,0.91,-2.55,-43.05,50.40,35.79,118.55,
06/01/2021,01:08:10.24,-378.91,-947.27,-121.09,-2.07,-3.23,0.00,-4.05,-42.60,51.45,35.89,118.55,
06/01/2021,01:08:10.25,-389.16,-937.01,-130.37,-3.35,-4.57,-0.98,-4.05,-42.60,51.45,35.79,118.55,
06/01/2021,01:08:10.26,-396.48,-952.64,-129.39,-1.59,-4.21,1.89,-2.70,-42.45,51.00,35.60,118.55,
06/01/2021,01:08:10.27,-391.60,-952.15,-140.62,-1.77,-2.32,2.07,-2.85,-41.10,48.60,35.60,118.55,
06/01/2021,01:08:10.28,-400.88,-948.73,-129.88,-0.37,-3.17,1.46,-3.45,-42.45,52.80,35.79,118.55,
06/01/2021,01:08:10.28,-384.28,-950.68,-130.37,-1.04,-3.72,-1.83,-3.00,-41.70,50.55,36.13,118.55,
06/01/2021,01:08:10.29,-397.46,-937.50,-134.28,-0.79,-1.34,1.40,-3.00,-41.70,50.55,36.08,118.55,
06/01/2021,01:08:10.29,-379.88,-942.38,-132.81,-0.85,-2.68,-0.43,-5.25,-41.25,50.55,35.70,118.55,
06/01/2021,01:08:10.31,-387.70,-952.64,-138.18,1.04,-3.17,1.77,-2.85,-42.15,49.95,35.55,118.55,
06/01/2021,01:08:10.32,-401.86,-949.22,-136.72,-0.98,-1.65,-0.37,-2.70,-41.25,52.05,35.55,118.55,
06/01/2021,01:08:10.32,-388.18,-949.22,-145.02,-1.71,-3.41,0.98,-2.70,-41.25,52.05,35.79,118.55,
06/01/2021,01:08:10.33,-393.55,-951.17,-134.28,-0.61,-2.87,1.04,-2.70,-41.25,52.05,35.79,118.55,
06/01/2021,01:08:10.33,-398.93,-945.31,-127.44,-2.13,-4.02,0.67,-2.70,-41.25,50.55,35.79,118.55,
06/01/2021,01:08:10.35,-397.46,-947.27,-132.81,-0.43,-1.16,-1.52,-2.70,-41.25,50.55,35.79,118.55,
06/01/2021,01:08:10.36,-382.81,-957.52,-128.91,-1.46,0.12,0.37,-4.35,-43.35,51.90,35.70,118.55,
06/01/2021,01:08:10.36,-386.23,-944.34,-125.98,0.06,-3.17,1.04,-4.05,-42.15,50.70,35.79,118.55,
06/01/2021,01:08:10.37,-390.14,-934.08,-125.49,-1.95,-3.23,0.00,-4.05,-42.15,50.70,35.70,118.55,
06/01/2021,01:08:10.37,-410.64,-945.31,-130.86,-2.50,-3.60,-0.06,-4.20,-43.50,51.30,35.89,118.55,
06/01/2021,01:08:10.39,-382.32,-942.87,-125.98,-0.30,-1.95,2.26,-2.70,-41.70,49.05,35.60,118.55,
06/01/2021,01:08:10.40,-400.88,-947.75,-135.25,-1.52,-3.41,1.34,-4.95,-41.70,52.05,35.89,118.55,
06/01/2021,01:08:10.40,-381.84,-943.85,-140.14,-1.28,-1.40,2.87,-4.05,-41.85,48.90,35.94,118.55,
06/01/2021,01:08:10.41,-376.95,-946.78,-131.84,-3.48,-2.07,1.34,-4.05,-41.85,48.90,35.79,118.55,
06/01/2021,01:08:10.41,-380.37,-948.24,-127.44,-1.71,-4.63,1.16,-4.05,-41.85,48.90,35.89,118.56,
06/01/2021,01:08:10.42,-382.81,-940.92,-147.46,-0.98,-2.93,0.85,-4.05,-41.85,48.90,35.79,118.56,
06/01/2021,01:08:10.44,-373.54,-951.66,-125.98,-2.99,-1.65,0.06,-3.00,-41.25,49.80,36.08,118.55,
06/01/2021,01:08:10.44,-384.77,-954.10,-127.93,-1.40,-2.01,1.52,-5.10,-41.25,49.80,35.94,118.55,
06/01/2021,01:08:10.45,-397.95,-959.47,-122.07,-1.89,-2.32,-0.49,-5.10,-41.85,50.70,35.89,118.56,
06/01/2021,01:08:10.45,-391.11,-962.40,-127.44,-1.65,0.61,0.06,-1.95,-42.45,49.80,35.79,118.56,
06/01/2021,01:08:10.46,-402.83,-943.36,-132.32,-1.46,-1.22,0.98,-1.95,-42.45,49.80,35.79,118.56,
06/01/2021,01:08:10.48,-382.81,-953.61,-125.00,-0.37,-0.85,2.20,-3.60,-42.15,51.45,35.75,118.55,
06/01/2021,01:08:10.48,-394.04,-944.82,-137.70,-2.20,-2.26,-1.04,-3.60,-42.15,51.45,35.70,118.56,
06/01/2021,01:08:10.49,-395.51,-953.12,-139.65,-2.38,0.24,-0.55,-2.70,-42.00,51.60,35.75,118.56,
06/01/2021,01:08:10.49,-384.28,-945.80,-132.32,-2.74,-1.04,-0.55,-3.45,-42.45,49.80,35.98,118.56,
06/01/2021,01:08:10.50,-386.72,-952.15,-125.00,-1.46,-0.73,-1.46,-3.45,-42.45,49.80,35.89,118.56,
06/01/2021,01:08:10.52,-395.51,-944.82,-131.35,-3.60,-1.95,0.37,-3.45,-41.70,51.00,35.79,118.56,
06/01/2021,01:08:10.52,-399.41,-948.24,-127.93,-1.89,-2.38,0.43,-3.45,-41.70,51.00,35.75,118.56,
06/01/2021,01:08:10.53,-397.95,-939.45,-135.25,-0.85,-0.18,-0.79,-3.45,-41.70,51.00,35.79,118.56,
06/01/2021,01:08:10.53,-387.70,-944.82,-149.41,-3.17,3.05,0.06,-4.35,-42.15,51.15,35.94,118.56,
06/01/2021,01:08:10.54,-404.30,-943.36,-123.54,-4.09,-2.50,0.43,-4.35,-42.15,51.15,35.94,118.56,
06/01/2021,01:08:10.55,-390.14,-938.48,-126.95,-1.71,0.00,3.48,-3.60,-42.15,49.95,35.70,118.56,
06/01/2021,01:08:10.56,-398.44,-948.73,-128.42,-2.99,-0.91,0.37,-3.60,-42.15,49.95,35.98,118.56,
06/01/2021,01:08:10.57,-395.51,-941.41,-134.28,-1.22,-0.98,2.20,-3.00,-42.00,51.60,35.98,118.56,
06/01/2021,01:08:10.57,-389.65,-936.04,-131.84,-2.32,2.62,0.18,-2.85,-42.15,50.40,35.94,118.56,
06/01/2021,01:08:10.58,-381.84,-947.75,-125.00,-0.37,0.12,-0.79,-2.85,-42.15,50.40,35.46,118.56,
06/01/2021,01:08:10.59,-381.84,-958.98,-132.81,-0.67,-0.24,1.46,-3.30,-41.40,49.65,35.79,118.56,
06/01/2021,01:08:10.60,-400.88,-951.66,-131.84,-0.85,-0.24,1.59,-3.30,-41.40,49.65,36.08,118.56,
06/01/2021,01:08:10.61,-392.58,-944.82,-138.18,-2.26,0.98,-0.24,-2.85,-41.40,51.15,35.89,118.56,
06/01/2021,01:08:10.61,-391.60,-951.66,-129.39,-3.05,-0.24,1.89,-2.85,-41.40,51.15,36.08,118.56,
06/01/2021,01:08:10.65,-396.48,-952.15,-135.74,-3.54,2.32,1.89,-4.35,-41.40,51.45,35.94,118.55,
06/01/2021,01:08:10.66,-403.32,-942.87,-138.18,-0.37,1.28,0.37,-2.70,-42.00,51.60,35.79,118.55,
06/01/2021,01:08:10.68,-391.11,-949.71,-138.67,-2.62,0.98,0.12,-4.35,-43.35,51.15,35.98,118.55,
06/01/2021,01:08:10.68,-375.00,-949.71,-131.84,-2.13,2.99,2.20,-4.35,-43.35,51.15,35.79,118.55,
06/01/2021,01:08:10.69,-378.91,-954.10,-139.65,-2.99,-0.37,1.59,-4.35,-43.35,51.15,35.79,118.55,
06/01/2021,01:08:10.69,-373.05,-938.96,-121.58,-1.65,-0.06,0.24,-4.35,-42.60,51.90,36.08,118.55,
06/01/2021,01:08:10.70,-397.46,-938.48,-127.93,-0.85,0.55,3.35,-4.35,-42.60,51.90,35.98,118.55,
06/01/2021,01:08:10.72,-388.18,-930.66,-124.02,-0.18,1.46,0.06,-4.50,-41.25,52.05,36.08,118.55,
06/01/2021,01:08:10.72,-383.30,-944.34,-139.65,-2.13,0.37,-0.49,-4.50,-41.25,52.05,35.60,118.55,
06/01/2021,01:08:10.73,-389.16,-958.98,-140.14,-1.46,2.68,-0.61,-3.45,-41.70,51.60,35.55,118.55,
06/01/2021,01:08:10.73,-395.51,-947.27,-121.58,-3.23,0.91,0.85,-4.50,-41.70,51.00,35.79,118.55,
06/01/2021,01:08:10.74,-396.00,-940.92,-128.42,-1.95,1.22,-1.89,-4.50,-41.70,51.00,35.94,118.55,
06/01/2021,01:08:10.76,-394.04,-961.43,-128.91,-2.80,3.48,0.55,-4.05,-41.85,51.15,35.98,118.55,
06/01/2021,01:08:10.76,-390.62,-949.71,-127.93,-3.90,0.91,-2.44,-4.05,-41.85,51.15,35.79,118.55,
06/01/2021,01:08:10.77,-386.72,-945.31,-125.98,-2.80,2.68,1.77,-2.85,-41.85,50.70,35.79,118.55,
06/01/2021,01:08:10.77,-385.25,-949.22,-133.79,-3.29,2.56,-2.50,-3.00,-42.45,50.55,35.79,118.55,
06/01/2021,01:08:10.78,-388.67,-946.29,-131.84,-1.46,3.35,1.65,-3.00,-42.45,50.55,36.13,118.55,
06/01/2021,01:08:10.80,-396.97,-948.24,-122.07,-0.37,5.12,0.00,-3.30,-41.10,51.15,35.79,118.55,
06/01/2021,01:08:10.80,-383.30,-966.31,-121.58,-2.13,1.95,0.79,-3.30,-41.10,51.15,35.75,118.55,
06/01/2021,01:08:10.81,-393.55,-941.41,-132.32,-2.80,1.22,0.49,-1.80,-42.15,51.45,35.70,118.55,
06/01/2021,01:08:10.81,-382.32,-947.75,-139.16,-2.50,1.95,0.37,-1.80,-42.15,51.45,35.75,118.55,
06/01/2021,01:08:10.82,-390.14,-956.05,-131.84,0.00,1.10,2.20,-1.80,-42.15,51.45,35.55,118.55,
06/01/2021,01:08:10.82,-380.37,-946.78,-120.61,-2.74,1.89,5.00,-3.60,-41.10,48.90,35.94,118.55,
06/01/2021,01:08:10.84,-386.72,-953.12,-124.02,0.24,1.16,1.46,-3.30,-41.10,51.90,35.98,118.55,
06/01/2021,01:08:10.85,-378.91,-947.27,-130.37,-0.85,-0.91,0.12,-3.75,-44.70,52.80,35.89,118.55,
06/01/2021,01:08:10.85,-386.23,-945.31,-123.05,0.79,-0.61,0.49,-3.75,-44.70,52.80,35.94,118.55,
06/01/2021,01:08:10.86,-392.58,-935.55,-133.30,-1.22,0.12,1.16,-4.05,-42.60,51.45,35.98,118.55,
06/01/2021,01:08:10.86,-375.98,-940.92,-114.75,-1.59,-0.49,1.04,-4.20,-42.75,50.25,35.70,118.56,
06/01/2021,01:08:10.88,-378.42,-941.89,-122.07,-1.95,2.38,0.79,-5.10,-42.60,51.45,35.79,118.55,
06/01/2021,01:08:10.89,-381.84,-932.13,-118.65,-2.01,1.71,1.40,-5.10,-42.60,51.45,35.94,118.55,
06/01/2021,01:08:10.89,-384.77,-953.61,-126.46,-1.89,-1.34,-1.22,-5.10,-42.60,51.45,35.89,118.56,
06/01/2021,01:08:10.90,-389.16,-940.92,-131.35,-2.74,-0.67,3.05,-2.55,-41.85,51.90,35.79,118.56,
06/01/2021,01:08:10.90,-390.62,-941.41,-113.77,-3.35,2.80,-0.06,-2.55,-41.85,51.90,35.94,118.56,
06/01/2021,01:08:10.93,-388.67,-940.92,-109.86,-2.56,-1.04,-0.24,-5.85,-43.35,51.15,35.79,118.55,
06/01/2021,01:08:10.93,-386.23,-938.48,-112.79,-1.59,1.34,0.79,-4.20,-42.00,50.55,35.89,118.55,
06/01/2021,01:08:10.94,-383.30,-932.62,-111.82,0.67,0.06,2.20,-4.20,-42.00,50.55,35.94,118.55,
06/01/2021,01:08:10.95,-391.60,-945.80,-108.89,0.00,-0.85,1.71,-5.10,-43.05,50.70,35.46,118.55,
06/01/2021,01:08:10.95,-390.62,-939.94,-111.33,-0.18,-1.28,1.16,-5.10,-43.05,50.70,35.89,118.56,
06/01/2021,01:08:10.97,-377.93,-936.52,-117.19,-2.38,-0.98,2.80,-2.85,-41.10,50.70,35.98,118.55,
06/01/2021,01:08:10.97,-386.23,-939.94,-102.54,0.24,-0.30,1.52,-2.85,-41.10,50.70,35.94,118.55,
06/01/2021,01:08:10.98,-383.30,-952.15,-104.49,0.24,-0.30,0.79,-2.85,-41.10,50.70,35.89,118.55,
06/01/2021,01:08:10.98,-369.63,-942.87,-114.26,-0.37,-0.30,0.91,-2.85,-40.65,52.20,35.70,118.56,
06/01/2021,01:08:10.99,-386.23,-945.80,-119.14,-1.52,1.04,1.71,-2.85,-40.65,52.20,36.13,118.56,
06/01/2021,01:08:11.00,-373.54,-939.94,-116.70,-1.95,-0.49,0.85,-2.85,-40.65,52.20,35.89,118.56,
06/01/2021,01:08:11.01,-381.35,-948.24,-128.42,1.40,-0.43,-1.22,-2.70,-40.05,50.25,35.79,118.55,
06/01/2021,01:08:11.02,-372.07,-940.92,-113.28,1.83,1.10,3.05,-4.20,-43.95,52.80,35.70,118.56,
06/01/2021,01:08:11.02,-368.16,-944.82,-117.68,0.30,0.73,1.22,-5.70,-41.70,51.00,35.70,118.56,
06/01/2021,01:08:11.03,-371.58,-942.38,-119.63,0.49,-1.40,2.99,-5.70,-41.70,51.00,35.94,118.56,
06/01/2021,01:08:11.04,-376.95,-950.68,-120.12,-0.73,0.37,-0.18,-4.20,-42.45,51.30,35.75,118.56,
06/01/2021,01:08:11.05,-367.19,-935.55,-115.72,-0.67,-0.43,0.00,-3.60,-41.40,50.70,35.79,118.56,
06/01/2021,01:08:11.06,-383.79,-942.87,-123.54,-0.98,0.43,0.98,-3.75,-43.50,51.60,35.98,118.56,
06/01/2021,01:08:11.06,-373.54,-950.20,-115.72,-0.49,-1.77,1.10,-3.75,-43.50,51.60,35.60,118.56,
06/01/2021,01:08:11.07,-379.39,-945.80,-122.07,1.04,-1.83,-0.06,-3.75,-43.50,51.60,35.94,118.56,
06/01/2021,01:08:11.08,-372.07,-948.73,-110.84,0.61,0.18,1.22,-4.80,-41.10,50.70,35.79,118.56,
06/01/2021,01:08:11.09,-374.51,-948.24,-121.09,-1.04,-1.10,-1.16,-4.80,-41.10,50.70,35.75,118.56,
06/01/2021,01:08:11.10,-380.37,-938.96,-130.37,-0.37,-0.55,2.80,-4.80,-41.85,51.45,35.94,118.56,
06/01/2021,01:08:11.10,-375.98,-940.92,-112.30,-0.98,-0.61,1.89,-4.80,-41.85,51.45,35.94,118.56,
06/01/2021,01:08:11.11,-388.67,-949.22,-121.58,-0.61,-0.73,2.50,-2.10,-42.15,52.20,36.08,118.56,
06/01/2021,01:08:11.12,-370.61,-949.71,-123.05,0.91,0.06,2.44,-3.75,-41.25,50.25,35.60,118.56,
06/01/2021,01:08:11.18,-389.16,-948.24,-124.02,-1.10,-1.46,-0.30,-4.35,-41.40,52.20,35.89,118.55,
06/01/2021,01:08:11.19,-366.70,-952.64,-130.86,0.73,-2.44,3.90,-4.05,-42.15,49.65,35.94,118.55,
06/01/2021,01:08:11.20,-376.46,-950.68,-126.95,-0.73,-0.37,0.49,-3.00,-41.70,52.05,35.98,118.55,
06/01/2021,01:08:11.21,-376.46,-955.57,-129.88,-1.59,-1.89,0.61,-4.20,-40.80,51.60,35.75,118.55,
06/01/2021,01:08:11.21,-379.88,-946.78,-125.00,-1.34,-1.77,-0.12,-4.20,-40.80,51.60,35.70,118.55,
06/01/2021,01:08:11.22,-388.18,-954.59,-133.30,-0.12,-2.20,0.12,-2.40,-42.00,52.05,35.94,118.55,
06/01/2021,01:08:11.23,-380.86,-946.29,-131.35,-0.67,-1.28,0.91,-2.70,-41.25,49.50,35.75,118.55,
06/01/2021,01:08:11.24,-393.07,-944.82,-137.70,-2.68,-1.46,0.24,-4.05,-42.60,51.45,35.79,118.55,
06/01/2021,01:08:11.25,-380.37,-964.84,-125.49,-0.37,-2.01,-0.30,-2.55,-41.85,51.45,35.46,118.55,
06/01/2021,01:08:11.25,-385.25,-949.22,-127.44,-2.87,1.34,1.40,-2.55,-41.85,51.45,35.75,118.55,
06/01/2021,01:08:11.26,-380.86,-947.27,-133.30,-0.91,-1.04,2.26,-4.50,-42.00,51.60,35.79,118.55,
06/01/2021,01:08:11.27,-380.86,-947.75,-138.67,-2.68,0.43,0.43,-4.50,-42.00,51.60,35.94,118.55,
06/01/2021,01:08:11.28,-371.09,-963.87,-118.16,-0.79,-1.46,0.73,-4.95,-44.25,52.80,35.89,118.55,
06/01/2021,01:08:11.29,-380.37,-955.57,-133.30,-3.11,-1.10,0.18,-4.95,-44.25,52.80,36.08,118.55,
06/01/2021,01:08:11.29,-383.30,-944.82,-131.35,-1.59,0.43,-0.12,-4.95,-44.25,52.80,35.89,118.55,
06/01/2021,01:08:11.30,-388.67,-949.22,-142.58,-1.52,-0.79,0.85,-3.45,-39.00,51.30,35.79,118.55,
06/01/2021,01:08:11.31,-382.32,-955.08,-128.91,-2.07,0.61,1.28,-2.70,-40.50,51.30,36.13,118.55,
06/01/2021,01:08:11.32,-385.74,-941.89,-122.56,-1.83,1.22,1.83,-3.60,-43.35,52.20,35.94,118.55,
06/01/2021,01:08:11.32,-380.37,-952.64,-130.86,-2.07,0.98,-0.85,-3.60,-43.35,52.20,35.75,118.55,
06/01/2021,01:08:11.33,-376.95,-957.52,-118.65,-4.02,-4.02,1.34,-4.35,-42.15,51.45,35.75,118.55,
06/01/2021,01:08:11.34,-374.51,-956.54,-125.49,-1.40,-1.89,1.83,-4.35,-41.85,52.20,35.79,118.55,
06/01/2021,01:08:11.35,-393.55,-943.36,-123.54,-0.73,1.22,0.12,-3.60,-42.15,50.40,36.08,118.55,
06/01/2021,01:08:11.36,-379.88,-947.27,-132.81,-2.01,-0.37,0.12,-3.60,-42.15,50.40,35.79,118.55,
06/01/2021,01:08:11.36,-377.44,-953.12,-127.44,-3.35,1.10,-0.67,-3.60,-42.15,50.40,35.79,118.55,
06/01/2021,01:08:11.37,-381.84,-951.66,-122.07,-3.35,-1.34,0.18,-4.20,-42.45,53.10,35.79,118.55,
06/01/2021,01:08:11.38,-379.39,-938.48,-124.51,-2.80,-0.12,0.12,-4.20,-42.45,53.10,35.89,118.55,
06/01/2021,01:08:11.38,-375.98,-954.10,-117.19,-2.44,0.98,-2.38,-4.20,-42.45,53.10,35.79,118.55,
06/01/2021,01:08:11.40,-384.77,-944.82,-119.14,-4.39,-0.79,2.62,-3.60,-42.15,51.45,35.70,118.55,
06/01/2021,01:08:11.40,-377.93,-957.03,-124.51,-2.74,0.18,0.49,-3.60,-42.15,51.45,35.79,118.55,
06/01/2021,01:08:11.41,-383.79,-954.10,-125.49,-2.13,-1.46,1.16,-3.75,-42.00,50.25,35.79,118.55,
06/01/2021,01:08:11.42,-370.61,-953.61,-114.26,-2.32,-1.22,0.67,-5.25,-41.70,49.80,35.75,118.55,
06/01/2021,01:08:11.42,-388.67,-939.45,-128.42,-3.17,-1.04,2.13,-5.25,-41.70,49.80,35.89,118.55,
06/01/2021,01:08:11.44,-370.61,-945.80,-105.96,-1.16,-0.12,1.77,-4.80,-42.15,51.90,35.70,118.55,
06/01/2021,01:08:11.44,-390.14,-942.38,-116.21,-3.35,-1.22,-0.24,-4.80,-42.15,51.90,35.55,118.55,
06/01/2021,01:08:11.45,-383.79,-943.36,-111.33,0.12,-2.13,1.22,-4.80,-42.15,51.90,35.55,118.55,
06/01/2021,01:08:11.46,-382.32,-948.73,-115.23,-3.60,-1.65,1.34,-3.60,-43.05,50.40,35.89,118.55,
06/01/2021,01:08:11.46,-383.79,-963.87,-115.23,-2.56,-1.52,1.16,-3.60,-43.05,50.40,35.75,118.55,
06/01/2021,01:08:11.48,-376.46,-950.68,-116.70,-0.55,-0.24,0.61,-3.75,-42.45,51.60,35.60,118.55,
06/01/2021,01:08:11.48,-371.58,-942.87,-112.30,-1.04,-2.07,-0.06,-3.75,-42.45,51.60,35.60,118.55,
06/01/2021,01:08:11.49,-378.42,-949.71,-118.16,-3.96,1.95,1.22,-4.35,-42.15,52.20,35.79,118.55,
06/01/2021,01:08:11.50,-389.65,-940.92,-117.19,-1.59,-0.18,2.07,-5.55,-43.35,52.20,36.13,118.55,
06/01/2021,01:08:11.50,-377.44,-949.71,-118.65,-1.89,-0.79,2.62,-5.55,-43.35,52.20,35.94,118.55,
06/01/2021,01:08:11.52,-370.12,-941.41,-106.93,-0.37,0.79,1.40,-4.80,-42.15,51.45,35.94,118.55,
06/01/2021,01:08:11.52,-369.63,-946.29,-114.26,-1.16,0.18,2.26,-4.80,-42.15,51.45,35.55,118.55,
06/01/2021,01:08:11.53,-372.56,-946.78,-114.26,-3.35,0.85,-0.18,-4.35,-42.60,51.45,35.79,118.55,
06/01/2021,01:08:11.53,-386.72,-952.15,-117.19,-3.60,-2.07,-0.12,-4.35,-42.60,51.45,35.75,118.55,
06/01/2021,01:08:11.54,-373.54,-945.31,-120.12,-2.20,-1.10,1.40,-4.35,-42.60,51.45,35.89,118.55,
06/01/2021,01:08:11.55,-373.54,-955.08,-115.72,-1.46,-0.73,2.20,-2.70,-40.80,50.55,35.79,118.55,
06/01/2021,01:08:11.56,-361.82,-949.71,-119.63,-1.28,-2.74,1.89,-2.70,-40.80,50.55,35.70,118.55,
06/01/2021,01:08:11.57,-371.58,-949.71,-104.49,0.06,-0.18,2.44,-4.05,-40.35,53.25,35.79,118.55,
06/01/2021,01:08:11.57,-390.14,-942.38,-95.70,-1.95,0.85,2.13,-4.05,-40.35,53.25,35.75,118.55,
06/01/2021,01:08:11.58,-374.51,-954.10,-119.63,-1.59,-0.61,0.98,-3.30,-41.85,50.70,35.70,118.55,
06/01/2021,01:08:11.59,-375.49,-950.20,-114.26,-0.61,-2.26,1.71,-4.95,-40.80,51.30,36.13,118.55,
06/01/2021,01:08:11.60,-371.09,-954.10,-121.58,0.06,-1.89,2.80,-2.70,-41.25,51.00,35.75,118.55,
06/01/2021,01:08:11.61,-366.70,-946.29,-119.14,-2.62,-1.04,2.68,-4.05,-43.35,51.45,35.79,118.55,
06/01/2021,01:08:11.61,-369.63,-954.10,-108.40,-2.56,-1.16,1.89,-4.05,-43.35,51.45,35.94,118.55,
06/01/2021,01:08:11.62,-361.33,-953.61,-112.79,-0.30,-2.32,1.22,-3.00,-42.75,52.05,35.94,118.55,
06/01/2021,01:08:11.63,-358.40,-952.64,-125.00,-1.22,-0.61,2.62,-3.60,-41.85,51.45,35.94,118.55,
06/01/2021,01:08:11.67,-372.56,-954.59,-121.09,-1.83,1.40,-0.73,-3.00,-41.70,52.05,35.79,118.55,
06/01/2021,01:08:11.68,-363.77,-955.08,-122.56,0.49,0.06,-0.18,-4.35,-43.80,51.15,35.98,118.55,
06/01/2021,01:08:11.69,-366.21,-953.12,-125.00,-2.38,1.10,-2.26,-2.55,-41.85,50.70,35.79,118.55,
06/01/2021,01:08:11.70,-381.84,-959.96,-122.56,0.61,-1.77,0.79,-3.60,-41.40,51.15,35.75,118.55,
06/01/2021,01:08:11.70,-364.26,-959.96,-123.54,-1.46,1.77,-1.34,-3.60,-41.40,51.15,35.79,118.55,
06/01/2021,01:08:11.72,-375.00,-951.66,-130.86,-1.77,-1.28,-1.46,-4.05,-42.60,52.65,35.75,118.55,
06/01/2021,01:08:11.72,-376.46,-948.73,-127.44,0.85,1.04,0.85,-4.05,-42.60,52.65,35.79,118.55,
06/01/2021,01:08:11.73,-374.51,-947.75,-122.56,0.00,-0.98,1.34,-2.40,-40.50,52.35,35.98,118.55,
06/01/2021,01:08:11.74,-385.25,-947.27,-127.44,-0.06,-0.91,0.18,-2.40,-40.50,52.35,35.79,118.55,
06/01/2021,01:08:11.74,-386.23,-956.54,-126.95,-0.61,-1.71,1.04,-2.40,-40.50,52.35,35.79,118.55,
06/01/2021,01:08:11.75,-374.51,-952.64,-123.54,-1.65,0.73,2.93,-3.60,-40.65,48.15,35.75,118.55,
06/01/2021,01:08:11.76,-378.42,-948.24,-122.07,-2.50,-1.46,-0.79,-3.60,-40.65,48.15,35.98,118.55,
06/01/2021,01:08:11.77,-383.30,-957.52,-137.70,-5.00,-0.85,0.24,-4.35,-43.05,51.15,35.79,118.55,
06/01/2021,01:08:11.77,-376.46,-942.87,-135.74,-2.56,-0.61,1.34,-4.35,-43.05,51.15,35.94,118.55,
06/01/2021,01:08:11.78,-368.65,-958.98,-136.72,-1.28,-3.23,1.16,-3.60,-42.60,51.15,35.98,118.55,
06/01/2021,01:08:11.79,-363.28,-957.03,-115.23,-1.89,-0.91,0.06,-4.80,-41.85,51.45,35.79,118.55,
06/01/2021,01:08:11.80,-378.91,-943.36,-125.00,-2.93,1.77,-0.79,-5.25,-43.95,51.60,35.75,118.55,
06/01/2021,01:08:11.81,-378.42,-966.80,-114.75,-2.32,2.01,-1.10,-4.20,-41.25,51.60,36.08,118.55,
06/01/2021,01:08:11.81,-368.65,-941.41,-120.61,-1.83,-0.24,2.13,-4.20,-41.25,51.60,35.75,118.55,
06/01/2021,01:08:11.82,-384.28,-951.66,-114.26,-3.11,0.18,0.12,-3.45,-41.25,52.05,35.98,118.55,
06/01/2021,01:08:11.83,-374.51,-958.98,-135.25,-1.77,-0.73,0.61,-3.45,-41.25,52.05,35.75,118.55,
06/01/2021,01:08:11.84,-383.30,-945.31,-128.91,-2.93,1.95,0.67,-2.70,-41.25,52.35,35.55,118.55,
06/01/2021,01:08:11.85,-366.70,-952.64,-113.28,-3.48,0.91,2.68,-2.70,-41.25,52.35,35.70,118.55,
06/01/2021,01:08:11.85,-381.84,-964.84,-122.07,-2.62,1.89,1.71,-2.70,-41.25,52.35,35.79,118.55,
06/01/2021,01:08:11.86,-375.98,-942.38,-133.30,-1.83,0.91,0.98,-4.35,-41.85,51.15,35.89,118.55,
06/01/2021,01:08:11.87,-366.70,-941.41,-129.39,-2.44,1.46,4.76,-4.35,-41.85,51.15,35.94,118.55,
06/01/2021,01:08:11.88,-374.02,-963.87,-128.91,0.24,-0.18,2.32,-3.45,-40.50,51.60,35.70,118.55,
06/01/2021,01:08:11.89,-375.49,-954.59,-137.21,-0.98,1.46,2.32,-3.30,-41.10,52.20,35.89,118.55,
06/01/2021,01:08:11.89,-372.56,-955.57,-141.60,-3.72,1.10,4.09,-3.30,-41.10,52.20,35.89,118.55,
06/01/2021,01:08:11.90,-375.98,-952.15,-119.63,-2.01,-0.24,1.95,-5.25,-42.75,52.05,35.98,118.55,
06/01/2021,01:08:11.90,-381.35,-952.15,-116.70,-2.74,2.68,3.72,-5.25,-42.75,52.05,35.94,118.55,
06/01/2021,01:08:11.91,-374.02,-952.64,-124.02,-0.85,3.11,2.56,-3.60,-39.90,49.95,35.70,118.55,
06/01/2021,01:08:11.93,-395.02,-955.08,-115.23,-4.15,1.22,-0.18,-4.80,-42.15,51.90,35.55,118.55,
06/01/2021,01:08:11.93,-377.93,-946.29,-118.16,-3.17,1.16,2.20,-4.80,-42.15,51.90,35.79,118.55,
06/01/2021,01:08:11.94,-369.14,-952.15,-109.38,-3.29,-0.12,-0.30,-4.80,-42.15,51.90,35.79,118.55,
06/01/2021,01:08:11.94,-369.14,-945.31,-111.33,-2.01,0.98,1.77,-4.80,-42.15,51.90,35.70,118.55,
06/01/2021,01:08:11.95,-379.39,-958.98,-119.63,-2.87,1.83,2.38,-3.30,-41.40,50.70,35.94,118.55,
06/01/2021,01:08:11.97,-377.44,-947.27,-131.84,-1.28,0.55,0.12,-1.95,-39.75,50.55,35.79,118.55,
06/01/2021,01:08:11.97,-373.54,-940.92,-104.49,-2.93,1.52,3.29,-2.10,-42.60,51.45,35.89,118.55,
06/01/2021,01:08:11.98,-370.61,-947.75,-110.84,-1.28,2.26,3.48,-3.45,-41.70,52.35,35.89,118.55,
06/01/2021,01:08:11.98,-385.25,-946.29,-104.49,-2.13,-1.95,4.15,-3.45,-41.70,52.35,36.08,118.55,
06/01/2021,01:08:11.99,-383.30,-965.33,-113.28,-3.29,1.71,-0.61,-3.45,-41.70,51.30,35.60,118.55,
06/01/2021,01:08:12.01,-380.86,-956.05,-116.70,-1.34,1.71,4.15,-1.95,-40.80,51.00,35.55,118.55,
06/01/2021,01:08:12.01,-373.54,-943.85,-109.38,-1.83,1.28,3.54,-4.95,-42.75,52.05,35.89,118.55,
06/01/2021,01:08:12.02,-375.98,-960.94,-114.75,-2.01,0.24,2.32,-3.60,-42.15,50.70,35.79,118.55,
06/01/2021,01:08:12.02,-394.04,-955.57,-123.05,-3.54,1.71,3.66,-3.60,-42.15,50.70,35.75,118.55,
06/01/2021,01:08:12.03,-368.65,-954.10,-114.26,-2.38,1.34,3.05,-3.60,-42.15,50.70,35.94,118.55,
06/01/2021,01:08:12.04,-373.54,-948.24,-112.79,-1.59,2.07,0.37,-2.40,-40.80,50.55,35.79,118.55,
06/01/2021,01:08:12.05,-376.46,-949.71,-113.28,-1.40,0.43,4.09,-2.40,-40.80,50.55,35.75,118.55,
06/01/2021,01:08:12.06,-379.39,-953.61,-108.40,-3.41,1.34,3.05,-2.40,-40.80,50.55,35.60,118.55,
06/01/2021,01:08:12.06,-370.12,-954.10,-115.23,-2.38,1.04,3.41,-3.30,-41.40,50.40,35.79,118.55,
06/01/2021,01:08:12.07,-377.44,-946.78,-120.61,-1.28,1.71,4.02,-4.20,-41.25,50.55,35.60,118.55,
06/01/2021,01:08:12.07,-380.37,-971.19,-126.95,-2.80,0.67,2.68,-4.20,-41.25,50.55,35.79,118.56,
06/01/2021,01:08:12.09,-370.61,-948.24,-112.79,-2.80,0.85,2.50,-4.50,-42.00,51.00,36.08,118.55,
06/01/2021,01:08:12.10,-371.09,-943.85,-119.63,-2.93,0.37,2.93,-4.50,-42.00,51.00,35.94,118.55,
06/01/2021,01:08:12.10,-376.46,-942.87,-114.26,-1.28,1.46,-0.73,-1.95,-41.70,51.60,35.89,118.55,
06/01/2021,01:08:12.11,-377.93,-951.17,-114.26,-2.38,0.73,4.09,-4.05,-41.40,51.90,35.89,118.56,
06/01/2021,01:08:12.11,-371.58,-955.57,-108.40,-2.74,1.71,3.84,-4.05,-41.40,51.90,35.60,118.56,
06/01/2021,01:08:12.13,-365.23,-962.89,-112.79,-1.16,2.32,2.38,-3.00,-42.75,51.60,35.70,118.55,
06/01/2021,01:08:12.13,-361.33,-959.47,-110.35,-0.12,1.83,3.90,-3.00,-42.75,51.60,35.60,118.55,
06/01/2021,01:08:12.14,-366.21,-952.15,-125.00,-3.48,1.04,3.90,-3.00,-42.75,51.60,35.89,118.56,
06/01/2021,01:08:12.18,-376.95,-952.15,-121.58,-1.04,1.40,-0.43,-3.60,-41.85,51.45,35.60,118.55,
06/01/2021,01:08:12.19,-369.14,-949.71,-107.91,-2.50,1.16,3.17,-3.00,-42.75,51.30,35.46,118.55,
06/01/2021,01:08:12.21,-374.51,-956.05,-113.28,-1.95,-0.24,0.98,-3.45,-41.70,52.05,35.70,118.55,
06/01/2021,01:08:12.21,-362.79,-958.50,-118.16,-2.87,-1.40,0.00,-3.45,-41.70,52.05,36.08,118.55,
06/01/2021,01:08:12.22,-379.88,-954.10,-118.65,-1.83,1.83,1.40,-3.45,-41.70,52.05,35.98,118.55,
06/01/2021,01:08:12.22,-373.05,-946.78,-129.39,-0.85,0.98,1.34,-3.30,-41.40,50.70,35.79,118.55,
06/01/2021,01:08:12.23,-365.72,-962.89,-115.72,-0.67,-0.67,0.30,-3.30,-41.40,50.70,36.08,118.55,
06/01/2021,01:08:12.24,-361.82,-960.45,-102.54,-1.77,1.34,1.34,-1.95,-42.75,50.55,36.08,118.55,
06/01/2021,01:08:12.25,-371.09,-956.54,-104.98,-0.61,1.10,0.67,-4.80,-43.35,51.90,35.75,118.55,
06/01/2021,01:08:12.26,-363.77,-958.50,-117.19,-0.49,-0.18,2.44,-4.80,-43.35,51.90,35.79,118.55,
06/01/2021,01:08:12.26,-369.63,-960.94,-122.56,-1.65,-0.79,-0.30,-2.10,-41.40,51.90,35.70,118.55,
06/01/2021,01:08:12.27,-366.21,-956.54,-129.88,-0.30,0.43,2.07,-3.00,-40.80,50.55,35.70,118.55,
06/01/2021,01:08:12.27,-359.38,-944.82,-119.14,-1.95,1.04,-0.43,-3.00,-40.80,50.55,35.89,118.55,
06/01/2021,01:08:12.29,-358.40,-947.75,-120.12,-3.29,-1.65,1.34,-4.05,-42.15,51.15,35.55,118.55,
06/01/2021,01:08:12.30,-377.93,-946.29,-126.46,-1.77,-0.79,-0.61,-4.05,-42.15,51.15,35.79,118.55,
06/01/2021,01:08:12.30,-362.30,-954.59,-121.58,-0.12,-1.40,3.11,-2.85,-41.40,51.45,35.79,118.55,
06/01/2021,01:08:12.31,-364.26,-961.43,-127.93,-3.41,-1.89,0.12,-3.75,-41.25,51.60,35.89,118.55,
06/01/2021,01:08:12.31,-370.12,-959.96,-135.74,-3.17,0.00,1.65,-3.75,-41.25,51.60,35.75,118.55,
06/01/2021,01:08:12.33,-378.91,-945.80,-126.95,-1.95,1.34,-1.28,-3.45,-42.45,51.30,35.79,118.55,
06/01/2021,01:08:12.34,-364.26,-955.57,-128.91,-0.73,-1.46,1.40,-3.45,-42.45,51.30,35.79,118.55,
06/01/2021,01:08:12.34,-376.46,-950.20,-121.09,-1.04,0.24,-0.12,-3.45,-42.45,51.30,35.60,118.55,
06/01/2021,01:08:12.35,-373.54,-958.50,-127.44,-2.87,-0.61,-0.37,-4.35,-42.60,51.90,35.75,118.55,
06/01/2021,01:08:12.35,-371.58,-956.54,-129.39,-1.95,-0.30,0.61,-4.35,-42.60,51.90,35.60,118.55,
06/01/2021,01:08:12.37,-375.98,-958.01,-133.79,-2.01,-0.61,-0.91,-3.45,-41.70,51.30,35.98,118.55,
06/01/2021,01:08:12.38,-376.95,-958.98,-119.63,-2.38,1.10,2.80,-3.45,-41.70,51.30,35.79,118.55,
06/01/2021,01:08:12.38,-375.00,-944.34,-129.88,-3.41,1.46,0.12,-3.30,-42.15,52.95,35.79,118.55,
06/01/2021,01:08:12.39,-379.39,-954.59,-127.44,-0.98,-0.73,4.21,-3.30,-42.15,52.95,35.89,118.55,
06/01/2021,01:08:12.39,-373.54,-964.36,-127.44,-3.29,0.12,-0.85,-3.30,-40.35,51.90,35.89,118.55,
06/01/2021,01:08:12.41,-378.91,-954.10,-138.18,-3.90,-2.13,-0.30,-1.65,-42.00,50.55,35.75,118.55,
06/01/2021,01:08:12.41,-374.51,-959.96,-122.07,-2.93,-1.28,0.73,-1.65,-42.00,50.55,35.94,118.55,
06/01/2021,01:08:12.42,-380.37,-958.01,-123.54,-5.37,0.06,2.50,-3.45,-42.75,51.60,35.79,118.55,
06/01/2021,01:08:12.43,-375.49,-946.78,-131.35,-1.77,-1.16,0.00,-3.45,-42.75,51.60,35.89,118.55,
06/01/2021,01:08:12.43,-382.81,-958.98,-114.75,-1.95,-0.12,1.28,-3.45,-42.75,51.60,35.60,118.55,
06/01/2021,01:08:12.44,-378.42,-945.31,-114.75,-3.41,-0.85,0.18,-2.85,-41.85,49.65,35.75,118.55,
06/01/2021,01:08:12.45,-371.09,-949.22,-112.30,-3.35,0.85,2.07,-2.85,-42.15,51.15,35.55,118.55,
06/01/2021,01:08:12.46,-365.23,-950.68,-109.38,-3.60,-1.77,-0.49,-3.75,-40.50,50.55,35.79,118.55,
06/01/2021,01:08:12.47,-368.65,-945.80,-112.30,-4.09,-0.73,1.77,-3.75,-40.50,50.55,35.60,118.55,
06/01/2021,01:08:12.47,-375.98,-944.34,-130.86,-4.15,-1.04,1.52,-2.70,-42.00,50.55,36.08,118.55,
06/01/2021,01:08:12.48,-375.00,-950.20,-110.35,-2.44,-0.24,1.46,-3.30,-42.15,50.55,35.98,118.55,
06/01/2021,01:08:12.49,-382.81,-953.12,-111.82,-0.67,1.10,0.18,-3.60,-42.15,51.45,35.70,118.55,
06/01/2021,01:08:12.50,-382.81,-950.68,-127.93,-1.65,-3.11,-0.24,-3.60,-42.15,51.45,35.79,118.55,
06/01/2021,01:08:12.51,-383.30,-948.24,-127.44,-3.60,-1.71,2.38,-3.60,-42.15,51.45,36.08,118.55,
06/01/2021,01:08:12.51,-372.56,-956.05,-133.79,-1.52,-1.83,-0.06,-3.00,-41.70,52.35,35.94,118.55,
06/01/2021,01:08:12.52,-371.58,-945.31,-125.00,-0.98,-1.59,1.77,-3.00,-41.70,52.35,35.79,118.56,
06/01/2021,01:08:12.53,-376.95,-959.47,-128.91,-2.07,-0.67,2.38,-4.80,-41.85,52.20,35.89,118.55,
06/01/2021,01:08:12.54,-375.49,-943.36,-112.30,-3.23,-1.71,1.34,-4.05,-42.60,51.45,35.89,118.55,
06/01/2021,01:08:12.54,-358.89,-952.15,-116.70,-6.28,-0.73,0.61,-4.05,-42.60,51.45,35.94,118.55,
06/01/2021,01:08:12.55,-375.98,-943.36,-110.84,-3.41,-1.83,1.71,-3.30,-41.85,51.90,35.89,118.56,
06/01/2021,01:08:12.56,-365.72,-944.82,-114.75,-1.16,-1.46,-0.12,-3.30,-41.85,51.90,35.79,118.56,
06/01/2021,01:08:12.57,-363.77,-944.34,-124.51,-3.05,-1.10,1.10,-2.10,-41.10,51.90,35.94,118.55,
06/01/2021,01:08:12.58,-383.30,-958.01,-137.70,-0.98,-1.16,2.62,-4.80,-41.10,52.20,35.89,118.55,
06/01/2021,01:08:12.58,-387.21,-945.80,-127.93,-3.96,-1.10,-0.79,-4.80,-41.10,52.20,35.75,118.56,
06/01/2021,01:08:12.59,-377.93,-947.27,-115.23,-2.93,-1.52,1.04,-4.80,-41.10,52.20,35.94,118.56,
06/01/2021,01:08:12.60,-380.86,-934.08,-141.60,-1.95,1.71,2.74,-4.80,-41.10,52.20,35.89,118.56,
06/01/2021,01:08:12.61,-382.32,-965.82,-124.02,-2.38,-1.71,3.05,-2.10,-40.65,49.65,35.94,118.55,
06/01/2021,01:08:12.62,-386.72,-952.15,-127.44,-3.48,-0.06,0.61,-2.10,-40.65,49.65,35.89,118.56,
06/01/2021,01:08:12.62,-374.02,-956.05,-127.93,-2.56,-2.20,1.40,-2.55,-40.65,52.95,35.60,118.56,
06/01/2021,01:08:12.63,-372.07,-949.71,-124.51,-2.32,0.91,3.29,-3.00,-42.45,51.30,35.55,118.56,
06/01/2021,01:08:12.64,-375.00,-958.01,-125.98,-0.73,0.24,3.29,-3.00,-42.45,51.30,35.94,118.56,
06/01/2021,01:08:12.64,-384.77,-962.40,-124.02,-1.95,-0.12,2.80,-2.40,-42.00,49.80,35.60,118.56,
06/01/2021,01:08:12.69,-376.95,-955.08,-127.93,-3.54,-0.18,-0.12,-4.20,-42.00,52.35,35.98,118.55,
06/01/2021,01:08:12.70,-385.25,-948.73,-120.12,-3.23,0.79,3.29,-4.35,-42.15,51.45,35.79,118.55,
06/01/2021,01:08:12.71,-383.79,-951.17,-129.39,-1.10,-1.89,3.54,-4.35,-42.15,51.45,35.79,118.55,
06/01/2021,01:08:12.71,-359.86,-954.10,-120.12,-2.62,1.52,2.87,-1.95,-41.70,51.30,35.75,118.55,
06/01/2021,01:08:12.72,-375.98,-947.75,-133.79,-2.07,0.06,2.68,-1.95,-41.70,51.30,35.79,118.55,
06/01/2021,01:08:12.73,-354.49,-942.87,-119.63,-2.99,-2.68,3.29,-3.30,-41.85,51.45,35.89,118.55,
06/01/2021,01:08:12.74,-381.35,-938.96,-120.12,-1.83,-1.22,0.73,-5.70,-42.00,51.00,35.79,118.55,
06/01/2021,01:08:12.75,-374.51,-952.64,-127.44,-4.27,0.98,1.10,-5.70,-42.00,51.00,35.60,118.55,
06/01/2021,01:08:12.75,-367.68,-946.29,-121.58,-2.87,-2.26,2.99,-3.75,-41.25,51.30,35.55,118.55,
06/01/2021,01:08:12.76,-374.51,-946.78,-122.07,-2.07,-1.95,2.80,-3.75,-41.25,51.30,35.79,118.55,
06/01/2021,01:08:12.77,-386.23,-954.59,-128.91,-2.99,-1.95,1.89,-3.30,-40.65,51.90,36.22,118.55,
06/01/2021,01:08:12.78,-371.09,-947.75,-119.14,-3.17,0.91,0.67,-3.75,-42.75,52.80,35.94,118.55,
06/01/2021,01:08:12.79,-378.42,-950.68,-125.98,-1.28,-0.06,3.41,-3.75,-42.75,52.80,35.89,118.55,
06/01/2021,01:08:12.79,-367.19,-944.34,-114.26,-2.26,-0.30,2.62,-3.75,-42.75,52.80,35.75,118.55,
06/01/2021,01:08:12.80,-367.68,-958.50,-124.51,-2.62,-0.12,-1.52,-3.75,-42.75,52.80,35.79,118.55,
06/01/2021,01:08:12.81,-380.86,-947.27,-122.07,-1.83,-2.38,-0.55,-2.85,-40.35,49.95,35.75,118.55,
06/01/2021,01:08:12.82,-376.95,-956.05,-120.61,-1.52,-0.49,1.89,-2.40,-39.75,51.30,35.79,118.55,
06/01/2021,01:08:12.83,-367.19,-939.94,-117.19,-1.59,-1.65,3.17,-2.40,-39.75,51.30,35.60,118.55,
06/01/2021,01:08:12.83,-373.54,-949.22,-101.56,0.43,-1.95,2.26,-4.05,-41.85,52.20,35.89,118.55,
06/01/2021,01:08:12.84,-378.42,-951.17,-117.19,-1.59,-1.28,-0.49,-4.05,-41.85,52.20,35.55,118.55,
06/01/2021,01:08:12.84,-371.09,-931.15,-109.86,-0.55,-1.77,2.01,-2.70,-40.50,49.50,35.79,118.55,
06/01/2021,01:08:12.86,-369.14,-949.22,-114.75,-1.22,-0.73,-0.91,-3.60,-42.15,51.45,35.89,118.55,
06/01/2021,01:08:12.87,-366.70,-942.87,-114.75,-2.93,0.18,1.28,-3.60,-42.15,51.45,35.79,118.55,
06/01/2021,01:08:12.87,-367.19,-959.47,-122.07,-2.68,-0.24,0.18,-3.45,-42.00,51.30,35.70,118.55,
06/01/2021,01:08:12.88,-372.56,-950.68,-110.35,-1.40,-1.22,0.43,-3.45,-42.00,51.30,35.79,118.55,
06/01/2021,01:08:12.88,-364.26,-950.68,-126.95,-1.46,1.59,0.12,-3.45,-42.00,51.30,35.94,118.55,
06/01/2021,01:08:12.90,-375.00,-966.31,-108.40,-1.71,-0.61,0.43,-1.20,-40.05,48.75,35.75,118.55,
06/01/2021,01:08:12.90,-364.26,-958.98,-116.21,-1.71,-1.95,1.89,-1.20,-40.05,48.75,35.75,118.55,
06/01/2021,01:08:12.91,-371.58,-950.20,-125.00,-1.22,-0.12,2.50,-4.50,-41.25,51.60,35.79,118.55,
06/01/2021,01:08:12.92,-370.12,-946.29,-130.86,-0.12,-0.91,0.61,-4.50,-41.25,51.60,35.89,118.55,
06/01/2021,01:08:12.92,-366.70,-958.50,-131.84,-2.13,-1.40,-0.67,-3.75,-41.25,52.80,35.79,118.55,
06/01/2021,01:08:12.94,-376.46,-958.98,-124.02,-0.12,-3.35,3.29,-2.40,-41.25,50.25,35.94,118.55,
06/01/2021,01:08:12.94,-372.07,-951.17,-113.28,0.55,-0.43,0.91,-4.95,-42.75,52.05,35.79,118.55,
06/01/2021,01:08:12.95,-377.44,-956.05,-119.14,-0.43,-1.28,1.77,-2.85,-41.40,51.15,35.75,118.55,
06/01/2021,01:08:12.96,-370.61,-959.96,-121.58,0.30,-3.29,0.43,-2.85,-41.40,51.15,35.94,118.55,
06/01/2021,01:08:12.96,-373.05,-960.94,-112.30,1.28,-1.40,1.52,-3.30,-41.85,52.95,35.70,118.55,
06/01/2021,01:08:12.98,-377.44,-963.87,-127.44,-0.79,-1.04,1.65,-3.30,-41.85,52.95,36.08,118.55,
06/01/2021,01:08:12.98,-371.09,-956.54,-116.70,-0.73,0.85,1.46,-2.70,-43.20,51.30,35.79,118.55,
06/01/2021,01:08:12.99,-384.77,-955.57,-123.05,0.06,-0.73,0.43,-2.70,-43.20,51.30,35.89,118.55,
06/01/2021,01:08:13.00,-379.39,-956.05,-126.46,-1.04,-0.12,1.83,-2.70,-43.20,51.30,36.13,118.55,
06/01/2021,01:08:13.00,-370.12,-936.04,-130.37,1.71,-0.30,1.77,-4.35,-41.85,51.45,35.89,118.56,
06/01/2021,01:08:13.01,-382.81,-943.85,-138.67,-0.43,1.65,1.71,-4.35,-41.85,51.45,35.60,118.56,
06/01/2021,01:08:13.02,-379.39,-956.05,-134.77,0.12,-1.95,-0.43,-3.60,-44.10,51.90,35.94,118.55,
06/01/2021,01:08:13.03,-372.56,-952.64,-137.70,0.18,-0.24,-0.30,-3.60,-44.10,51.90,36.08,118.55,
06/01/2021,01:08:13.04,-384.77,-941.41,-132.81,-0.91,0.37,0.73,-3.45,-41.70,50.25,35.94,118.56,
06/01/2021,01:08:13.04,-378.91,-929.69,-130.37,-3.41,-0.18,0.37,-4.20,-42.45,50.25,35.55,118.56,
06/01/2021,01:08:13.05,-385.74,-932.13,-134.28,-0.73,0.79,-1.28,-4.20,-42.45,50.25,35.70,118.56,
06/01/2021,01:08:13.06,-381.35,-949.22,-128.42,-2.62,1.22,0.06,-1.80,-40.65,50.70,35.89,118.55,
06/01/2021,01:08:13.07,-385.25,-955.57,-129.88,0.06,-1.59,-0.98,-1.80,-40.65,50.70,35.46,118.56,
06/01/2021,01:08:13.07,-384.77,-941.89,-137.21,-0.73,0.49,0.85,-3.75,-43.20,51.60,35.60,118.56,
06/01/2021,01:08:13.08,-378.91,-946.78,-129.88,-0.91,1.65,0.67,-3.75,-43.20,51.60,36.08,118.56,
06/01/2021,01:08:13.09,-386.72,-949.71,-130.86,-1.52,-0.55,0.12,-3.75,-43.20,51.60,35.94,118.56,
06/01/2021,01:08:13.10,-396.48,-950.68,-129.88,-2.07,-1.22,0.30,-3.00,-42.00,52.05,35.75,118.56,
06/01/2021,01:08:13.11,-396.00,-955.57,-126.95,-0.79,0.73,1.40,-3.00,-42.00,52.05,35.94,118.56,
06/01/2021,01:08:13.11,-390.14,-960.45,-132.81,0.12,-0.79,2.26,-3.60,-41.40,50.40,35.98,118.56,
06/01/2021,01:08:13.12,-398.44,-952.64,-134.28,-0.30,1.34,1.77,-3.60,-41.40,50.40,35.75,118.56,
06/01/2021,01:08:13.13,-381.84,-946.78,-131.84,-2.56,2.68,2.13,-4.50,-40.80,51.60,35.79,118.56,
06/01/2021,01:08:13.14,-380.37,-956.54,-131.35,-0.85,3.29,1.04,-4.05,-40.65,50.70,35.94,118.56,
06/01/2021,01:08:13.15,-378.91,-947.27,-124.51,-1.46,0.91,0.12,-4.05,-40.65,50.70,35.94,118.56,
06/01/2021,01:08:13.15,-389.16,-956.54,-138.67,-4.09,2.13,2.62,-3.45,-42.00,52.05,35.94,118.56,
06/01/2021,01:08:13.16,-380.37,-948.73,-131.35,-4.02,2.87,4.63,-3.45,-42.00,52.05,35.79,118.56,
06/01/2021,01:08:13.19,-382.81,-949.22,-125.49,-2.32,0.55,3.66,-5.25,-42.00,52.05,35.89,118.55,
06/01/2021,01:08:13.21,-377.93,-943.36,-111.82,-1.59,-2.32,3.23,-4.05,-42.15,51.90,35.89,118.55,
06/01/2021,01:08:13.23,-377.93,-947.75,-117.19,-2.13,0.49,3.66,-3.00,-41.70,51.60,35.89,118.55,
06/01/2021,01:08:13.23,-392.58,-946.78,-116.21,-3.11,0.98,0.79,-4.20,-42.45,50.55,35.89,118.55,
06/01/2021,01:08:13.24,-376.95,-933.11,-114.75,-3.60,-0.12,0.49,-4.20,-42.45,50.55,35.75,118.55,
06/01/2021,01:08:13.24,-380.37,-958.01,-119.63,-1.77,1.83,3.72,-2.70,-42.00,52.35,35.75,118.55,
06/01/2021,01:08:13.25,-368.65,-940.43,-117.19,-1.28,2.44,3.11,-2.70,-42.00,52.35,35.89,118.55,
06/01/2021,01:08:13.27,-361.82,-944.34,-119.63,-2.68,0.91,3.60,-3.30,-39.90,51.15,35.75,118.55,
06/01/2021,01:08:13.27,-371.58,-948.24,-118.65,-0.91,-0.85,4.15,-3.00,-40.80,52.35,35.46,118.55,
06/01/2021,01:08:13.28,-361.82,-958.01,-119.14,-0.43,0.06,3.84,-3.00,-40.80,52.35,35.70,118.55,
06/01/2021,01:08:13.28,-363.77,-953.61,-105.47,-1.04,0.49,4.39,-3.00,-40.80,52.35,35.79,118.55,
06/01/2021,01:08:13.29,-358.89,-954.59,-112.30,-2.26,-0.12,1.16,-3.00,-40.80,52.35,35.79,118.55,
06/01/2021,01:08:13.30,-363.77,-948.73,-116.21,-4.15,1.22,0.73,-2.40,-42.00,51.00,35.55,118.55,
06/01/2021,01:08:13.31,-381.35,-953.12,-116.21,0.00,0.85,2.01,-2.40,-42.00,51.00,35.94,118.55,
06/01/2021,01:08:13.32,-384.28,-950.68,-116.21,0.61,2.44,2.87,-3.60,-41.40,52.20,35.89,118.55,
06/01/2021,01:08:13.32,-384.77,-950.20,-119.63,-1.28,1.59,6.04,-4.05,-41.40,51.45,35.94,118.55,
06/01/2021,01:08:13.33,-367.68,-942.87,-99.12,-0.98,-0.06,1.46,-4.05,-41.40,51.45,35.89,118.55,
06/01/2021,01:08:13.34,-366.21,-951.66,-113.28,0.91,1.04,1.10,-3.75,-42.45,51.30,35.75,118.55,
06/01/2021,01:08:13.35,-375.49,-965.33,-125.49,-1.59,0.85,0.00,-3.75,-42.45,51.30,35.94,118.55,
06/01/2021,01:08:13.36,-379.39,-952.15,-111.82,-0.37,3.90,2.07,-3.75,-42.45,51.30,35.94,118.55,
06/01/2021,01:08:13.36,-370.12,-938.96,-121.58,-1.10,0.73,3.54,-3.60,-41.10,51.15,35.79,118.55,
06/01/2021,01:08:13.37,-380.86,-955.08,-120.12,-2.01,-0.73,-0.91,-3.60,-41.10,51.15,35.60,118.55,
06/01/2021,01:08:13.37,-366.21,-948.24,-114.75,-0.67,-0.43,-0.43,-3.60,-41.10,51.15,35.75,118.55,
06/01/2021,01:08:13.39,-371.09,-960.94,-113.77,-0.24,1.71,0.24,-1.20,-42.45,51.00,35.70,118.55,
06/01/2021,01:08:13.40,-369.63,-941.41,-102.54,-1.59,-1.83,1.89,-3.60,-41.85,51.15,35.98,118.55,
06/01/2021,01:08:13.40,-382.32,-950.20,-115.23,-1.16,-0.67,1.04,-4.80,-40.65,51.15,35.60,118.55,
06/01/2021,01:08:13.41,-374.02,-960.45,-108.89,-2.01,0.43,1.10,-4.80,-40.65,51.15,35.60,118.55,
06/01/2021,01:08:13.41,-382.81,-947.27,-116.70,0.67,0.79,2.38,-4.20,-40.80,52.35,35.89,118.55,
06/01/2021,01:08:13.43,-366.21,-960.94,-114.75,-0.61,-1.46,2.93,-1.80,-42.15,50.40,35.89,118.55,
06/01/2021,01:08:13.43,-375.00,-953.61,-110.84,-1.59,-1.16,0.98,-4.35,-41.40,53.25,35.79,118.55,
06/01/2021,01:08:13.44,-362.30,-949.22,-119.63,-2.07,-2.87,0.43,-4.35,-41.40,53.25,35.98,118.55,
06/01/2021,01:08:13.45,-362.79,-955.08,-112.79,-2.44,0.06,2.13,-4.35,-41.40,53.25,35.89,118.55,
06/01/2021,01:08:13.45,-375.49,-951.66,-111.82,-1.52,2.32,1.22,-3.30,-41.10,51.90,35.79,118.56,
06/01/2021,01:08:13.47,-379.39,-956.05,-123.54,-1.83,0.61,2.74,-3.30,-41.10,51.90,35.75,118.55,
06/01/2021,01:08:13.47,-383.30,-965.82,-128.42,-2.07,0.43,0.91,-4.35,-41.40,51.90,35.89,118.55,
06/01/2021,01:08:13.48,-379.88,-956.54,-125.00,-0.79,-3.11,1.16,-4.35,-41.40,51.90,35.75,118.55,
06/01/2021,01:08:13.49,-375.00,-945.80,-124.51,-0.98,-1.28,3.29,-1.65,-40.80,51.30,35.94,118.56,
06/01/2021,01:08:13.49,-372.56,-951.66,-125.00,0.00,-2.44,3.05,-3.75,-42.00,51.30,35.79,118.56,
06/01/2021,01:08:13.51,-377.44,-959.47,-123.54,-2.62,-0.24,-1.95,-2.10,-41.40,50.70,35.60,118.55,
06/01/2021,01:08:13.51,-378.42,-951.17,-135.25,-1.83,-1.89,2.20,-4.35,-41.10,51.90,35.98,118.55,
06/01/2021,01:08:13.52,-372.56,-962.40,-124.51,-0.30,-0.24,3.48,-4.35,-41.10,51.90,35.89,118.56,
06/01/2021,01:08:13.53,-376.95,-968.26,-126.95,-0.06,-0.55,-0.12,-1.95,-42.75,51.00,35.89,118.56,
06/01/2021,01:08:13.53,-372.56,-963.38,-122.56,-0.79,1.52,3.72,-1.95,-42.75,51.00,35.79,118.56,
06/01/2021,01:08:13.54,-375.49,-959.96,-126.95,-1.89,3.29,-0.43,-1.95,-42.75,51.00,35.89,118.56,
06/01/2021,01:08:13.55,-371.09,-953.12,-118.65,-2.32,-0.98,-0.12,-0.60,-39.45,49.95,35.60,118.56,
06/01/2021,01:08:13.56,-372.56,-950.20,-135.74,-1.40,-0.67,-0.43,-0.60,-39.45,49.95,35.89,118.56,
06/01/2021,01:08:13.56,-381.35,-956.54,-134.28,-0.91,-0.73,-0.30,-3.30,-40.65,50.70,35.46,118.56,
06/01/2021,01:08:13.57,-376.95,-962.89,-123.54,-0.67,-0.98,1.22,-3.30,-40.65,50.70,35.75,118.56,
06/01/2021,01:08:13.58,-383.30,-958.50,-122.07,-1.46,0.24,-0.49,-1.65,-40.50,50.55,35.60,118.56,
06/01/2021,01:08:13.59,-384.77,-937.50,-127.44,-2.68,-1.95,2.74,-4.80,-43.05,52.65,35.98,118.56,
06/01/2021,01:08:13.60,-385.25,-970.70,-116.70,-3.17,-2.26,0.91,-4.80,-43.05,52.65,35.89,118.56,
06/01/2021,01:08:13.60,-374.02,-959.47,-120.12,-2.01,-2.44,-0.49,-3.60,-42.15,51.45,35.79,118.56,
06/01/2021,01:08:13.61,-372.07,-957.03,-125.00,-3.48,-0.12,1.71,-3.60,-42.15,51.45,35.79,118.56,
06/01/2021,01:08:13.62,-384.28,-958.98,-135.25,-3.48,-1.22,-0.98,-1.35,-41.10,51.90,35.75,118.56,
06/01/2021,01:08:13.63,-378.91,-958.50,-137.21,-3.54,-0.37,1.95,-1.80,-42.15,51.90,35.89,118.56,
06/01/2021,01:08:13.64,-385.74,-946.29,-131.35,-1.71,-1.46,0.18,-1.80,-42.15,51.90,35.94,118.56,
06/01/2021,01:08:13.64,-364.26,-954.10,-115.23,-0.98,-1.40,1.89,-1.80,-42.15,51.90,35.70,118.56,
06/01/2021,01:08:13.65,-370.12,-954.10,-121.09,-2.62,-1.40,0.98,-1.80,-42.15,51.90,35.70,118.56,
06/01/2021,01:08:13.66,-374.02,-948.24,-135.74,-2.80,-0.85,1.89,-3.00,-40.80,51.60,35.55,118.56,
06/01/2021,01:08:13.70,-388.18,-959.47,-115.23,-4.21,-0.61,-1.89,-4.80,-41.40,51.90,35.55,118.55,
06/01/2021,01:08:13.71,-379.88,-955.57,-119.63,-5.00,-2.01,1.22,-3.75,-40.80,51.30,35.98,118.55,
06/01/2021,01:08:13.72,-366.70,-947.75,-124.02,-3.11,-1.83,2.13,-3.75,-40.80,51.30,35.79,118.55,
06/01/2021,01:08:13.73,-377.44,-960.94,-126.46,-3.11,1.34,2.13,-3.30,-41.85,51.90,35.70,118.55,
06/01/2021,01:08:13.73,-369.63,-964.36,-108.89,-2.01,-1.16,0.85,-3.30,-41.85,51.90,35.79,118.55,
06/01/2021,01:08:13.75,-351.07,-945.31,-110.84,-3.29,-2.50,1.40,-3.00,-41.70,52.05,35.94,118.55,
06/01/2021,01:08:13.75,-368.16,-959.96,-114.26,-3.17,0.67,-0.61,-3.00,-41.70,52.05,35.98,118.55,
06/01/2021,01:08:13.76,-371.58,-948.24,-109.86,-4.51,-2.68,0.18,-3.00,-41.70,52.05,35.55,118.55,
06/01/2021,01:08:13.77,-365.23,-948.24,-102.05,-3.23,-0.18,0.98,-2.10,-41.10,52.20,35.89,118.55,
06/01/2021,01:08:13.77,-367.68,-947.75,-107.42,-2.93,-0.98,-1.34,-2.10,-41.10,52.20,35.79,118.55,
06/01/2021,01:08:13.78,-379.88,-952.64,-104.49,-2.68,-0.79,2.26,-1.80,-39.90,51.15,35.79,118.55,
06/01/2021,01:08:13.79,-372.07,-967.29,-105.47,-3.90,-1.04,-0.67,-3.60,-42.60,52.20,35.94,118.55,
06/01/2021,01:08:13.80,-377.44,-944.82,-118.65,-2.99,-0.85,0.98,-3.60,-42.60,52.20,35.89,118.55,
06/01/2021,01:08:13.81,-388.67,-945.80,-111.82,-1.46,-2.44,-0.30,-2.70,-40.80,50.55,35.75,118.55,
06/01/2021,01:08:13.81,-375.00,-940.92,-110.84,-5.43,-1.40,-1.10,-2.70,-40.80,50.55,35.79,118.55,
06/01/2021,01:08:13.82,-362.79,-949.22,-111.33,-1.65,-4.15,0.43,-2.85,-42.15,51.45,36.08,118.55,
06/01/2021,01:08:13.83,-371.58,-956.54,-122.56,-3.96,-2.26,-0.37,-3.30,-42.15,51.90,36.08,118.55,
06/01/2021,01:08:13.84,-362.79,-942.87,-113.77,-2.32,-3.29,1.34,-3.30,-42.15,51.90,35.60,118.55,
06/01/2021,01:08:13.84,-376.95,-945.31,-117.19,-3.90,-1.77,1.22,-3.30,-42.15,51.90,35.79,118.55,
06/01/2021,01:08:13.85,-380.37,-955.08,-121.09,-2.87,-1.71,1.71,-3.30,-42.15,51.90,35.60,118.55,
06/01/2021,01:08:13.86,-373.54,-946.78,-119.63,-4.63,-2.93,-0.43,-3.60,-39.45,52.65,35.55,118.55,
06/01/2021,01:08:13.87,-371.09,-941.89,-116.21,-6.04,-2.26,-1.22,-2.10,-41.40,51.15,35.60,118.55,
06/01/2021,01:08:13.88,-374.51,-962.40,-128.91,-5.61,-1.89,1.10,-2.85,-43.80,52.95,35.55,118.55,
06/01/2021,01:08:13.88,-370.12,-938.96,-127.44,-6.52,-2.93,-0.12,-3.00,-42.45,51.60,36.08,118.55,
06/01/2021,01:08:13.89,-379.39,-962.89,-126.95,-5.55,-1.34,-1.52,-3.00,-42.45,51.60,35.89,118.55,
06/01/2021,01:08:13.90,-363.28,-965.82,-130.86,-5.18,-3.72,1.28,-2.55,-43.05,51.15,36.08,118.55,
06/01/2021,01:08:13.91,-361.82,-940.92,-103.52,-2.50,-6.04,0.79,-2.40,-42.75,50.25,35.89,118.55,
06/01/2021,01:08:13.92,-367.19,-955.08,-112.79,-4.09,-3.23,-0.79,-2.40,-42.75,50.25,35.55,118.55,
06/01/2021,01:08:13.92,-357.91,-959.96,-115.23,-3.84,-3.54,-0.73,-3.00,-40.80,51.60,35.55,118.55,
06/01/2021,01:08:13.93,-368.16,-959.96,-123.54,-5.49,-5.00,-1.34,-3.00,-40.80,51.60,35.79,118.55,
06/01/2021,01:08:13.94,-370.12,-949.22,-128.42,-4.33,-2.32,-1.10,-3.00,-40.80,51.60,35.94,118.56,
06/01/2021,01:08:13.95,-374.51,-948.24,-119.63,-5.49,-2.44,1.22,-1.95,-41.70,50.55,35.70,118.55,
06/01/2021,01:08:13.96,-372.56,-958.50,-121.09,-2.56,-1.77,1.40,-4.50,-42.00,51.30,35.70,118.55,
06/01/2021,01:08:13.96,-369.14,-957.52,-120.61,-4.88,-4.21,0.98,-2.55,-41.85,50.40,35.89,118.56,
06/01/2021,01:08:13.97,-369.63,-955.08,-125.00,-5.61,-1.65,-1.52,-2.55,-41.85,50.40,36.08,118.56,
06/01/2021,01:08:13.98,-372.56,-958.01,-123.54,-4.51,-4.15,3.90,-3.60,-41.10,51.90,35.94,118.56,
06/01/2021,01:08:13.98,-367.19,-950.68,-133.79,-4.94,-2.01,1.59,-3.60,-41.10,51.90,35.75,118.56,
06/01/2021,01:08:14.00,-368.65,-946.78,-124.02,-4.33,-5.18,0.18,-3.30,-42.60,50.70,36.13,118.56,
06/01/2021,01:08:14.00,-375.98,-957.03,-129.39,-4.33,-3.35,-0.91,-3.00,-42.75,51.30,35.89,118.56,
06/01/2021,01:08:14.01,-363.28,-941.89,-126.95,-2.32,-4.21,1.46,-3.00,-42.75,51.30,36.08,118.56,
06/01/2021,01:08:14.01,-370.12,-947.27,-121.09,-5.00,-3.17,-0.37,-4.05,-43.05,52.20,35.79,118.56,
06/01/2021,01:08:14.02,-370.61,-958.98,-138.67,-2.50,-3.84,0.06,-4.05,-43.05,52.20,35.70,118.56,
06/01/2021,01:08:14.04,-374.51,-953.12,-130.86,-3.96,-4.39,1.65,-4.50,-40.80,51.30,35.75,118.56,
06/01/2021,01:08:14.04,-368.16,-947.75,-123.54,-1.83,0.06,-1.28,-4.50,-40.80,51.30,35.79,118.56,
06/01/2021,01:08:14.05,-372.56,-943.85,-125.49,-2.99,-2.68,0.24,-4.50,-40.80,51.30,35.70,118.56,
06/01/2021,01:08:14.05,-371.09,-957.03,-134.28,-2.50,-6.16,0.79,-3.00,-40.80,52.05,35.89,118.56,
06/01/2021,01:08:14.06,-374.51,-952.64,-145.02,-3.35,-3.78,-1.22,-3.00,-40.80,52.05,35.60,118.56,
06/01/2021,01:08:14.08,-373.05,-941.89,-127.44,-2.38,-0.67,0.24,-2.85,-41.40,51.15,35.89,118.56,
06/01/2021,01:08:14.08,-384.28,-959.96,-129.88,-3.48,-0.18,-3.54,-2.85,-41.40,51.15,35.55,118.56,
06/01/2021,01:08:14.09,-374.02,-948.73,-122.56,-3.78,-2.32,2.38,-3.30,-41.85,52.65,35.79,118.56,
06/01/2021,01:08:14.09,-379.88,-955.08,-136.72,-2.13,-3.05,0.79,-2.70,-41.25,50.55,35.79,118.56,
06/01/2021,01:08:14.10,-370.12,-942.87,-135.25,-3.78,-1.40,1.52,-2.70,-41.25,50.55,35.55,118.56,
06/01/2021,01:08:14.12,-370.12,-944.82,-135.25,-2.87,-4.21,1.10,-2.70,-42.00,51.30,35.70,118.56,
06/01/2021,01:08:14.12,-371.09,-956.54,-117.68,-6.22,-4.27,1.22,-2.70,-42.00,51.30,35.98,118.56,
06/01/2021,01:08:14.13,-386.23,-951.66,-135.74,-4.39,-4.33,-0.79,-2.10,-42.15,52.20,35.79,118.56,
06/01/2021,01:08:14.13,-383.30,-942.87,-123.54,-3.54,-3.29,1.10,-2.10,-42.15,52.20,35.89,118.56,
06/01/2021,01:08:14.14,-380.86,-939.45,-137.70,-2.87,-3.11,-0.18,-2.10,-42.15,52.20,35.89,118.56,
06/01/2021,01:08:14.15,-378.91,-951.17,-131.84,-3.90,-1.34,0.06,-4.05,-41.40,51.15,35.89,118.56,
06/01/2021,01:08:14.16,-385.74,-949.22,-133.30,-3.90,1.10,-0.12,-4.05,-41.40,51.15,35.94,118.56,
06/01/2021,01:08:14.17,-376.46,-947.27,-135.74,-3.90,-2.74,1.65,-4.50,-41.25,50.55,35.60,118.56,
06/01/2021,01:08:14.17,-376.46,-940.43,-131.35,-2.80,-0.91,0.73,-4.50,-41.25,50.55,35.89,118.56,
06/01/2021,01:08:14.23,-387.21,-952.15,-138.18,-2.44,-1.95,3.29,-4.20,-41.70,51.30,35.89,118.55,
06/01/2021,01:08:14.24,-384.28,-949.22,-140.14,-2.38,-1.10,2.07,-4.35,-42.60,49.95,36.13,118.55,
06/01/2021,01:08:14.26,-372.56,-938.48,-120.61,-2.62,-1.40,0.91,-3.30,-43.05,52.20,35.70,118.55,
06/01/2021,01:08:14.26,-374.02,-954.59,-119.14,-2.62,-2.38,4.70,-2.70,-43.05,52.20,35.60,118.55,
06/01/2021,01:08:14.27,-374.02,-957.52,-126.95,-3.11,-2.74,2.62,-2.70,-41.25,51.60,35.94,118.55,
06/01/2021,01:08:14.28,-369.14,-951.17,-141.60,-4.63,0.00,0.91,-2.55,-41.85,51.15,35.98,118.55,
06/01/2021,01:08:14.28,-375.00,-944.82,-131.35,-4.02,-2.07,1.40,-2.55,-41.85,51.15,35.94,118.55,
06/01/2021,01:08:14.30,-384.77,-950.20,-136.72,-2.62,-2.62,1.65,-2.55,-41.85,48.15,35.79,118.55,
06/01/2021,01:08:14.30,-363.77,-949.71,-132.81,-1.95,-1.04,2.01,-2.55,-41.85,48.15,35.94,118.55,
06/01/2021,01:08:14.31,-373.05,-938.48,-129.39,-3.60,-1.77,1.83,-4.20,-40.50,50.25,35.75,118.55,
06/01/2021,01:08:14.32,-369.63,-951.17,-134.77,-4.21,-0.06,0.98,-4.20,-40.50,50.25,35.70,118.55,
06/01/2021,01:08:14.32,-378.42,-953.12,-128.91,-2.68,-3.48,1.65,-4.20,-40.50,50.25,35.89,118.55,
06/01/2021,01:08:14.34,-365.72,-945.80,-130.86,-4.76,-1.16,1.89,-4.20,-42.45,51.00,35.89,118.55,
06/01/2021,01:08:14.34,-377.93,-956.54,-134.77,-4.39,1.77,2.62,-4.20,-42.45,51.00,35.75,118.55,
06/01/2021,01:08:14.35,-376.95,-957.03,-130.86,-3.84,-1.40,3.23,-4.20,-43.95,51.60,35.70,118.55,
06/01/2021,01:08:14.36,-352.05,-942.87,-133.30,-4.57,-0.06,1.22,-3.75,-41.70,50.25,35.75,118.55,
06/01/2021,01:08:14.36,-365.23,-942.87,-132.32,-5.24,-1.71,2.87,-3.75,-41.70,50.25,35.70,118.55,
06/01/2021,01:08:14.38,-357.42,-951.66,-124.02,-2.32,-3.11,2.99,-4.35,-42.15,50.70,35.89,118.55,
06/01/2021,01:08:14.38,-361.33,-947.27,-121.09,-3.84,0.55,0.98,-4.35,-42.15,50.70,35.79,118.55,
06/01/2021,01:08:14.39,-365.72,-947.27,-129.88,-6.16,-0.98,1.83,-4.35,-42.15,50.70,35.60,118.55,
06/01/2021,01:08:14.39,-371.58,-947.75,-133.79,-5.06,-1.04,2.32,-3.30,-43.35,51.45,35.55,118.55,
06/01/2021,01:08:14.40,-368.16,-955.08,-142.58,-4.51,-1.16,2.13,-3.30,-43.35,51.45,35.79,118.55,
06/01/2021,01:08:14.41,-365.23,-956.54,-139.16,-4.33,-3.41,0.91,-3.30,-43.35,51.45,35.79,118.55,
06/01/2021,01:08:14.42,-360.84,-955.57,-128.42,-4.45,-2.07,4.33,-2.40,-41.70,49.50,35.89,118.55,
06/01/2021,01:08:14.43,-356.45,-939.45,-129.39,-2.26,-2.38,3.11,-2.40,-41.70,49.50,35.79,118.55,
06/01/2021,01:08:14.43,-363.77,-950.68,-127.93,-2.13,-1.65,3.48,-3.75,-43.50,51.00,35.75,118.55,
06/01/2021,01:08:14.44,-366.21,-947.75,-126.95,-2.99,-0.61,3.05,-3.75,-43.50,51.00,35.79,118.55,
06/01/2021,01:08:14.45,-369.14,-949.22,-126.46,-2.01,-1.89,2.38,-2.85,-43.05,51.45,35.70,118.55,
06/01/2021,01:08:14.46,-369.63,-943.85,-141.60,-1.95,-0.85,3.66,-2.55,-42.15,50.70,35.89,118.55,
06/01/2021,01:08:14.47,-363.28,-948.24,-131.84,-4.02,-2.38,2.20,-3.60,-42.15,50.70,35.79,118.55,
06/01/2021,01:08:14.47,-374.51,-948.73,-109.86,-4.88,-3.84,1.28,-4.80,-43.05,50.40,35.79,118.55,
06/01/2021,01:08:14.48,-370.61,-960.45,-135.74,-4.21,-2.62,2.50,-4.80,-43.05,50.40,35.94,118.55,
06/01/2021,01:08:14.49,-361.82,-958.50,-132.32,-2.93,-3.78,3.35,-4.20,-42.75,51.00,35.75,118.55,
06/01/2021,01:08:14.50,-367.68,-945.80,-126.46,-3.54,-2.99,0.61,-4.20,-42.75,51.00,35.89,118.55,
06/01/2021,01:08:14.51,-376.46,-952.15,-138.18,-5.18,-2.20,1.22,-4.50,-41.25,52.05,35.79,118.55,
06/01/2021,01:08:14.51,-361.33,-961.43,-136.23,-4.51,-2.32,0.18,-4.50,-41.25,52.05,35.79,118.55,
06/01/2021,01:08:14.52,-374.51,-950.20,-146.00,-4.27,-2.13,0.30,-4.50,-41.25,52.05,35.89,118.55,
06/01/2021,01:08:14.53,-370.12,-946.78,-126.46,-3.84,0.37,3.23,-4.05,-42.60,50.40,35.79,118.55,
06/01/2021,01:08:14.54,-371.09,-944.34,-131.35,-2.56,-2.62,0.61,-3.60,-41.85,51.15,35.94,118.55,
06/01/2021,01:08:14.55,-353.52,-945.31,-132.81,-2.38,-2.26,-0.24,-4.05,-43.05,51.45,35.79,118.55,
06/01/2021,01:08:14.55,-360.84,-944.82,-144.53,-4.51,-4.76,0.91,-4.05,-43.05,51.45,35.79,118.55,
06/01/2021,01:08:14.56,-364.26,-954.10,-128.91,-4.76,-0.55,1.16,-4.05,-43.05,51.45,35.94,118.55,
06/01/2021,01:08:14.57,-365.23,-955.57,-118.16,-5.79,-5.06,1.71,-4.50,-40.05,50.55,35.75,118.55,
06/01/2021,01:08:14.57,-361.82,-933.11,-133.30,-4.21,-4.76,0.85,-4.50,-40.05,50.55,35.70,118.55,
06/01/2021,01:08:14.59,-370.12,-942.87,-140.14,-2.62,-2.80,1.34,-2.40,-41.25,49.50,36.13,118.55,
06/01/2021,01:08:14.59,-377.44,-954.10,-142.09,-2.50,-3.11,3.29,-2.40,-41.25,49.50,35.70,118.55,
06/01/2021,01:08:14.60,-368.16,-949.71,-136.72,-3.23,-0.98,2.93,-2.70,-40.80,50.55,35.98,118.55,
06/01/2021,01:08:14.60,-380.37,-946.29,-137.70,-3.72,-4.21,-0.18,-2.70,-40.80,50.55,35.79,118.55,
06/01/2021,01:08:14.61,-365.23,-953.12,-134.77,-4.33,-2.74,2.68,-2.70,-40.80,50.55,35.70,118.55,
06/01/2021,01:08:14.63,-364.75,-948.73,-134.77,-2.99,-1.10,0.61,-3.00,-41.70,51.00,35.98,118.55,
06/01/2021,01:08:14.63,-368.16,-957.03,-136.23,-2.99,-1.89,1.46,-3.00,-41.70,51.00,35.98,118.55,
06/01/2021,01:08:14.64,-365.72,-957.52,-134.28,-3.35,-4.02,1.65,-4.80,-41.85,50.70,35.79,118.55,
06/01/2021,01:08:14.64,-371.58,-953.61,-136.23,-2.44,-3.17,-0.30,-4.80,-41.85,50.70,35.94,118.56,
06/01/2021,01:08:14.65,-378.42,-958.01,-125.00,-3.72,-5.37,3.05,-4.20,-42.00,52.05,35.79,118.56,
06/01/2021,01:08:14.67,-375.00,-946.29,-128.91,-3.35,-5.43,4.02,-3.00,-41.25,50.25,35.75,118.55,
06/01/2021,01:08:14.67,-365.72,-958.98,-136.72,-2.62,-5.24,3.66,-3.00,-41.25,50.25,35.55,118.55,
06/01/2021,01:08:14.68,-378.42,-945.31,-120.12,-2.74,-1.34,1.04,-3.00,-41.25,50.25,35.70,118.55,
06/01/2021,01:08:14.71,-368.16,-954.59,-131.35,-5.06,-4.15,0.18,-4.95,-42.75,49.80,35.79,118.55,
06/01/2021,01:08:14.73,-382.81,-939.45,-125.49,-1.16,-4.33,0.30,-4.05,-43.35,50.70,35.79,118.55,
06/01/2021,01:08:14.74,-365.23,-954.59,-133.79,-1.46,-3.54,1.40,-2.85,-42.15,50.40,35.70,118.55,
06/01/2021,01:08:14.75,-366.70,-950.68,-139.16,-4.33,-4.82,0.91,-4.80,-41.85,51.15,35.60,118.55,
06/01/2021,01:08:14.75,-369.14,-949.71,-142.09,-3.11,-5.43,-0.12,-4.80,-41.85,51.15,35.98,118.55,
06/01/2021,01:08:14.76,-380.86,-946.78,-142.58,-0.98,-2.50,1.71,-2.70,-42.45,50.55,35.94,118.55,
06/01/2021,01:08:14.77,-381.35,-952.64,-129.88,-3.17,-5.49,2.26,-3.60,-42.15,50.70,35.60,118.55,
06/01/2021,01:08:14.78,-376.95,-951.17,-139.16,-1.46,-3.96,2.99,-4.35,-42.60,49.65,35.79,118.55,
06/01/2021,01:08:14.79,-373.05,-942.87,-117.68,-1.10,-4.45,1.65,-4.35,-42.60,49.65,35.55,118.55,
06/01/2021,01:08:14.79,-377.93,-949.22,-133.30,-2.80,-4.39,2.50,-4.35,-42.60,49.65,35.70,118.55,
06/01/2021,01:08:14.80,-382.32,-947.75,-144.53,-0.18,-3.41,0.91,-4.05,-41.85,49.95,35.79,118.55,
06/01/2021,01:08:14.81,-379.39,-937.50,-142.09,-0.55,-4.27,1.46,-4.05,-41.85,49.95,35.60,118.55,
06/01/2021,01:08:14.81,-374.02,-944.34,-146.00,0.73,-2.87,0.55,-4.05,-41.85,49.95,35.75,118.55,
06/01/2021,01:08:14.83,-381.84,-947.75,-140.62,-2.50,-2.68,-2.80,-3.00,-41.25,50.25,35.94,118.55,
06/01/2021,01:08:14.83,-378.42,-940.43,-138.18,-0.73,-4.33,0.73,-3.00,-41.25,50.25,35.75,118.55,
06/01/2021,01:08:14.84,-382.32,-954.10,-143.07,-1.34,-2.20,1.22,-3.75,-41.70,50.25,35.55,118.55,
06/01/2021,01:08:14.85,-382.32,-950.68,-139.65,-2.32,-1.59,-0.37,-3.75,-41.70,50.25,35.89,118.55,
06/01/2021,01:08:14.85,-378.42,-948.24,-135.74,-2.01,-3.78,4.57,-4.80,-43.05,50.40,35.60,118.55,
06/01/2021,01:08:14.87,-386.72,-950.20,-132.32,-0.55,-2.32,2.13,-4.50,-42.00,49.50,35.75,118.55,
06/01/2021,01:08:14.87,-378.42,-951.66,-135.74,-1.10,-3.66,1.83,-4.50,-42.00,49.50,35.75,118.55,
06/01/2021,01:08:14.88,-373.54,-945.31,-135.25,-1.46,-2.26,2.20,-4.50,-42.00,49.50,35.60,118.55,
06/01/2021,01:08:14.89,-380.86,-952.15,-153.32,0.49,-1.65,0.30,-4.50,-42.00,49.50,35.94,118.55,
06/01/2021,01:08:14.89,-388.18,-951.17,-142.09,-0.24,-2.56,0.61,-4.50,-41.25,48.75,35.94,118.55,
06/01/2021,01:08:14.91,-376.95,-947.27,-140.62,-1.59,0.67,-1.40,-3.45,-43.20,50.55,35.75,118.55,
06/01/2021,01:08:14.91,-380.86,-940.43,-145.51,-2.01,0.00,0.12,-3.45,-43.20,50.55,35.75,118.55,
06/01/2021,01:08:14.92,-392.09,-950.20,-134.77,0.43,0.73,1.65,-3.00,-42.45,51.60,35.79,118.55,
06/01/2021,01:08:14.92,-377.44,-944.34,-136.72,0.12,-0.49,1.40,-3.00,-42.45,51.60,35.98,118.55,
06/01/2021,01:08:14.93,-379.39,-950.20,-140.62,0.61,-0.98,0.91,-2.10,-41.10,49.65,35.89,118.55,
06/01/2021,01:08:14.95,-382.32,-941.41,-137.21,0.00,-0.12,1.10,-4.50,-42.00,51.00,36.13,118.55,
06/01/2021,01:08:14.95,-391.60,-942.87,-141.11,0.91,-0.43,-2.01,-4.50,-42.00,51.00,35.79,118.55,
06/01/2021,01:08:14.96,-377.44,-954.10,-130.86,0.43,-3.78,2.99,-4.35,-41.85,50.40,35.75,118.55,
06/01/2021,01:08:14.96,-384.28,-947.75,-132.81,0.06,-0.85,0.98,-4.35,-41.85,50.40,35.89,118.55,
06/01/2021,01:08:14.97,-396.48,-950.68,-136.23,-2.50,-2.07,3.11,-4.35,-41.85,50.40,35.79,118.55,
06/01/2021,01:08:14.98,-376.46,-944.82,-139.16,-2.01,-0.61,2.07,-4.35,-41.85,50.40,35.70,118.55,
06/01/2021,01:08:14.99,-384.28,-951.66,-135.74,-2.32,-1.40,-0.30,-3.30,-39.90,48.60,35.60,118.55,
06/01/2021,01:08:15.00,-395.51,-940.92,-131.84,2.80,-2.68,-0.55,-5.25,-42.00,50.25,35.75,118.55,
06/01/2021,01:08:15.00,-393.07,-954.10,-132.32,0.37,-1.46,2.68,-5.25,-42.00,50.25,35.79,118.55,
06/01/2021,01:08:15.01,-391.60,-953.61,-136.72,-2.01,0.98,0.91,-4.20,-42.00,51.60,35.60,118.55,
06/01/2021,01:08:15.02,-388.18,-961.91,-149.41,-0.30,4.27,3.35,-4.20,-42.00,51.60,35.89,118.55,
06/01/2021,01:08:15.03,-385.74,-945.31,-145.51,-0.79,1.89,3.96,-4.20,-42.75,51.60,35.70,118.55,
06/01/2021,01:08:15.04,-381.35,-947.27,-124.02,-0.85,-0.55,-1.46,-5.55,-42.15,51.45,35.79,118.55,
06/01/2021,01:08:15.04,-388.18,-943.36,-128.42,-0.18,-0.49,4.02,-5.55,-42.15,51.45,35.70,118.55,
06/01/2021,01:08:15.05,-382.81,-951.66,-146.97,-1.22,1.65,2.80,-4.05,-41.85,50.70,35.79,118.55,
06/01/2021,01:08:15.05,-381.35,-946.78,-136.23,-3.05,-3.23,0.06,-4.05,-41.85,50.70,35.79,118.55,
06/01/2021,01:08:15.07,-375.98,-947.27,-137.21,-1.46,-0.98,2.56,-4.20,-42.45,50.55,35.89,118.55,
06/01/2021,01:08:15.08,-381.84,-954.59,-140.62,0.18,1.04,3.17,-4.20,-42.45,50.55,35.89,118.55,
06/01/2021,01:08:15.08,-376.46,-949.71,-146.48,-2.80,0.98,2.32,-4.20,-42.45,50.55,35.79,118.55,
06/01/2021,01:08:15.09,-385.25,-960.94,-136.72,-0.91,-2.44,3.78,-2.85,-41.85,50.70,35.94,118.55,
06/01/2021,01:08:15.09,-381.35,-942.38,-149.41,-1.28,-1.59,2.20,-2.85,-41.85,50.70,35.55,118.56,
06/01/2021,01:08:15.11,-372.07,-944.34,-142.58,-1.89,0.67,5.37,-4.80,-41.10,50.40,35.94,118.55,
06/01/2021,01:08:15.12,-366.21,-954.10,-142.09,-2.68,-0.43,1.89,-4.80,-41.10,50.40,35.79,118.55,
06/01/2021,01:08:15.12,-361.82,-944.82,-141.60,-5.12,1.40,1.65,-3.45,-42.00,50.55,35.60,118.55,
06/01/2021,01:08:15.13,-374.51,-960.94,-144.04,-5.18,1.46,2.13,-5.25,-42.75,51.30,35.60,118.56,
06/01/2021,01:08:15.13,-373.54,-942.87,-138.18,-1.71,-1.71,0.67,-5.25,-42.75,51.30,35.79,118.56,
06/01/2021,01:08:15.14,-362.30,-947.27,-129.39,-2.87,-1.10,1.95,-3.45,-40.50,49.50,35.94,118.56,
06/01/2021,01:08:15.16,-367.19,-954.59,-137.21,-0.61,2.38,2.07,-3.45,-40.50,49.50,35.79,118.55,
06/01/2021,01:08:15.16,-373.05,-959.96,-130.37,-2.20,1.65,5.12,-3.60,-42.60,52.65,35.89,118.56,
06/01/2021,01:08:15.17,-379.88,-945.31,-132.81,-1.28,-0.49,1.46,-3.60,-42.60,52.65,35.98,118.56,
06/01/2021,01:08:15.17,-378.91,-949.71,-134.77,-0.18,1.16,5.06,-3.60,-42.60,52.65,35.79,118.56,
06/01/2021,01:08:15.18,-358.89,-947.75,-128.91,-4.33,0.43,2.07,-2.85,-43.05,50.40,35.94,118.56,
06/01/2021,01:08:15.22,-375.49,-958.50,-122.07,-1.95,-0.67,2.80,-3.75,-42.75,51.30,35.60,118.55,
06/01/2021,01:08:15.24,-375.00,-939.45,-122.07,-3.66,0.79,0.18,-4.35,-41.85,52.65,35.75,118.55,
06/01/2021,01:08:15.24,-377.44,-954.10,-131.35,0.67,0.12,2.26,-4.35,-41.85,52.65,35.89,118.55,
06/01/2021,01:08:15.25,-384.77,-944.82,-137.70,-0.43,-1.46,1.04,-4.20,-41.25,50.55,35.94,118.55,
06/01/2021,01:08:15.26,-363.28,-942.87,-136.23,0.67,-2.01,2.20,-4.20,-41.25,50.55,35.79,118.55,
06/01/2021,01:08:15.27,-375.49,-948.73,-119.63,-1.22,-0.79,4.57,-5.25,-41.70,51.00,35.89,118.55,
06/01/2021,01:08:15.28,-368.65,-956.05,-125.98,-1.22,-0.43,5.55,-3.45,-42.00,50.25,35.60,118.55,
06/01/2021,01:08:15.28,-368.65,-944.82,-138.67,-1.77,0.85,0.85,-3.45,-42.00,50.25,35.79,118.55,
06/01/2021,01:08:15.29,-365.72,-952.15,-118.16,-3.72,-0.49,1.83,-4.35,-41.85,51.90,35.75,118.55,
06/01/2021,01:08:15.30,-382.81,-952.15,-131.35,-1.46,-1.04,3.11,-4.35,-41.85,51.90,35.94,118.55,
06/01/2021,01:08:15.31,-385.74,-947.75,-128.42,-0.91,-1.77,3.60,-4.95,-41.25,51.30,35.55,118.55,
06/01/2021,01:08:15.32,-373.54,-953.61,-127.44,0.18,-1.59,1.65,-4.95,-41.25,51.30,35.75,118.55,
06/01/2021,01:08:15.32,-379.39,-953.61,-116.70,-1.89,0.61,2.20,-3.00,-42.45,51.60,35.94,118.55,
06/01/2021,01:08:15.33,-370.12,-953.61,-127.44,-2.62,1.59,2.20,-3.00,-42.00,51.30,35.79,118.55,
06/01/2021,01:08:15.33,-377.44,-942.87,-126.95,-0.24,-1.83,2.07,-3.00,-42.00,51.30,35.79,118.55,
06/01/2021,01:08:15.34,-378.42,-946.78,-123.05,-0.37,-1.04,2.87,-1.80,-39.90,49.95,35.60,118.55,
06/01/2021,01:08:15.36,-382.32,-945.31,-127.93,-2.13,0.55,0.61,-1.80,-39.90,49.95,35.94,118.55,
06/01/2021,01:08:15.36,-372.07,-951.17,-119.63,-0.91,-1.10,3.48,-4.05,-43.35,51.45,35.94,118.55,
06/01/2021,01:08:15.37,-384.77,-947.75,-124.02,-0.67,-2.68,1.59,-4.05,-43.35,51.45,35.75,118.55,
06/01/2021,01:08:15.37,-382.81,-944.82,-124.02,-1.04,-0.79,2.07,-4.05,-43.35,51.45,35.55,118.55,
06/01/2021,01:08:15.38,-379.88,-950.20,-115.23,-1.46,-0.18,2.93,-3.30,-41.10,51.15,35.60,118.55,
06/01/2021,01:08:15.40,-396.00,-947.75,-126.95,-0.06,0.85,2.62,-2.70,-40.50,49.50,35.89,118.55,
06/01/2021,01:08:15.40,-388.67,-938.48,-129.88,0.49,-0.43,2.13,-4.20,-41.70,52.35,35.75,118.55,
06/01/2021,01:08:15.41,-378.91,-951.17,-130.37,-0.73,0.06,2.38,-4.95,-42.75,51.60,35.70,118.55,
06/01/2021,01:08:15.41,-389.16,-956.54,-128.42,-0.98,0.12,2.93,-4.95,-42.75,51.60,35.60,118.55,
06/01/2021,01:08:15.42,-373.54,-951.66,-114.26,2.01,0.37,3.90,-3.75,-42.00,52.05,35.79,118.55,
06/01/2021,01:08:15.44,-389.16,-950.20,-120.61,-2.62,-1.10,3.54,-2.55,-41.40,49.35,35.60,118.55,
06/01/2021,01:08:15.44,-390.14,-953.61,-129.88,-1.10,-0.98,2.80,-2.55,-41.40,49.35,35.55,118.55,
06/01/2021,01:08:15.45,-382.81,-954.10,-123.54,-1.46,-1.65,0.98,-4.35,-41.40,49.35,35.79,118.55,
06/01/2021,01:08:15.45,-384.28,-949.71,-119.63,-4.09,-1.16,3.84,-4.35,-41.40,51.45,35.70,118.55,
06/01/2021,01:08:15.46,-374.51,-947.75,-132.32,-3.60,-0.49,2.50,-4.35,-41.40,51.45,35.94,118.55,
06/01/2021,01:08:15.48,-379.88,-948.73,-129.39,-1.71,-1.89,5.55,-3.75,-41.70,49.80,35.55,118.55,
06/01/2021,01:08:15.48,-389.65,-967.77,-125.49,-3.66,0.30,3.29,-4.50,-42.75,51.60,35.79,118.55,
06/01/2021,01:08:15.49,-395.51,-941.41,-131.84,-0.85,-0.12,2.80,-4.50,-42.75,51.60,35.89,118.55,
06/01/2021,01:08:15.49,-388.67,-944.82,-129.88,0.67,-0.73,2.32,-4.95,-40.80,51.00,35.60,118.55,
06/01/2021,01:08:15.50,-370.12,-963.38,-123.54,-2.68,-1.10,4.33,-2.70,-41.70,49.80,35.94,118.55,
06/01/2021,01:08:15.51,-384.77,-951.66,-139.65,-2.01,-1.65,1.83,-2.70,-41.70,49.80,36.08,118.55,
06/01/2021,01:08:15.52,-382.81,-958.01,-122.56,-3.66,-0.67,0.85,-3.75,-42.00,50.55,35.75,118.55,
06/01/2021,01:08:15.53,-378.91,-965.82,-129.39,-1.83,0.12,2.74,-3.75,-42.00,50.55,35.60,118.55,
06/01/2021,01:08:15.53,-369.63,-953.61,-135.25,-1.22,-2.13,2.62,-3.75,-42.00,50.55,35.94,118.55,
06/01/2021,01:08:15.54,-378.91,-947.27,-137.21,-4.33,-1.40,0.73,-3.60,-41.40,51.15,35.70,118.55,
06/01/2021,01:08:15.54,-393.55,-962.89,-136.23,-3.35,-1.77,2.68,-3.60,-41.40,51.15,35.75,118.56,
06/01/2021,01:08:15.56,-367.19,-965.82,-123.54,-2.50,-3.78,3.41,-3.60,-42.15,50.40,35.89,118.55,
06/01/2021,01:08:15.57,-383.79,-954.10,-137.21,-4.82,-2.26,0.91,-3.60,-42.15,50.40,35.89,118.55,
06/01/2021,01:08:15.57,-374.02,-951.66,-135.25,-2.26,-0.91,2.80,-3.00,-42.75,51.00,35.75,118.55,
06/01/2021,01:08:15.58,-369.63,-961.91,-134.28,-4.15,-1.83,1.40,-4.05,-42.15,49.95,36.08,118.56,
06/01/2021,01:08:15.58,-371.09,-940.92,-127.93,-2.26,-1.04,3.17,-4.05,-42.15,49.95,35.89,118.56,
06/01/2021,01:08:15.60,-379.39,-950.20,-143.07,-1.22,-2.87,2.32,-3.30,-41.10,51.90,35.89,118.55,
06/01/2021,01:08:15.61,-377.44,-952.64,-130.37,-4.63,-0.85,1.52,-3.30,-41.10,51.90,35.79,118.56,
06/01/2021,01:08:15.61,-369.63,-937.01,-133.30,-2.44,-4.15,-2.07,-3.45,-40.50,52.35,35.75,118.56,
06/01/2021,01:08:15.62,-383.79,-950.20,-121.09,-2.62,-2.87,2.26,-3.45,-40.50,52.35,35.79,118.56,
06/01/2021,01:08:15.62,-378.42,-948.73,-129.39,-2.74,-2.44,-0.12,-3.45,-40.50,52.35,35.94,118.56,
06/01/2021,01:08:15.64,-368.65,-952.64,-119.63,-2.56,-0.37,-0.43,-2.10,-41.40,49.65,35.94,118.55,
06/01/2021,01:08:15.65,-384.77,-960.45,-131.35,-5.18,-0.24,2.38,-2.10,-41.40,49.65,35.75,118.56,
06/01/2021,01:08:15.65,-388.18,-951.17,-131.35,-1.83,-1.89,2.50,-3.75,-42.00,51.30,35.79,118.56,
06/01/2021,01:08:15.66,-378.42,-945.31,-134.77,-3.41,-2.07,0.61,-3.75,-42.00,51.30,35.94,118.56,
06/01/2021,01:08:15.66,-381.84,-954.59,-143.07,-2.32,-1.65,-0.67,-3.60,-42.15,50.70,35.70,118.56,
06/01/2021,01:08:15.68,-377.44,-951.66,-117.19,-4.15,-2.62,1.10,-3.45,-41.70,51.60,35.98,118.56,
06/01/2021,01:08:15.69,-389.65,-951.17,-148.93,-3.90,-3.23,-0.73,-3.45,-41.70,51.60,35.94,118.56,
06/01/2021,01:08:15.69,-385.25,-944.34,-138.67,-1.34,-0.43,0.73,-2.55,-42.60,51.15,35.94,118.56,
06/01/2021,01:08:15.70,-373.54,-956.05,-123.05,-3.54,-2.80,-0.79,-2.55,-42.60,51.15,36.08,118.56,
06/01/2021,01:08:15.73,-393.07,-946.29,-124.02,-3.23,-0.06,1.40,-4.95,-43.20,50.25,35.79,118.55,
06/01/2021,01:08:15.75,-387.70,-955.57,-132.32,-2.80,1.59,-0.06,-4.80,-41.85,50.70,35.79,118.55,
06/01/2021,01:08:15.76,-386.23,-947.27,-131.35,-2.74,0.12,-0.30,-2.40,-42.45,51.60,36.08,118.55,
06/01/2021,01:08:15.77,-377.44,-949.71,-122.07,-2.26,-1.46,-1.04,-2.40,-42.45,51.60,35.70,118.55,
06/01/2021,01:08:15.77,-379.39,-948.24,-119.63,-1.77,-2.38,-0.49,-2.70,-41.25,51.00,35.70,118.55,
06/01/2021,01:08:15.78,-389.65,-949.71,-137.70,-3.72,-2.99,1.22,-2.70,-43.20,50.25,35.79,118.55,
06/01/2021,01:08:15.79,-371.58,-955.57,-125.49,-2.80,-2.68,-0.49,-2.70,-43.20,50.25,35.75,118.55,
06/01/2021,01:08:15.80,-379.39,-942.38,-127.44,-2.38,-1.95,2.87,-2.70,-42.75,50.25,35.75,118.55,
06/01/2021,01:08:15.81,-374.51,-941.41,-132.81,-3.78,-1.22,-0.37,-2.70,-42.75,50.25,36.08,118.55,
06/01/2021,01:08:15.81,-383.79,-948.24,-127.93,-2.68,0.37,-1.46,-3.60,-41.40,51.45,35.89,118.55,
06/01/2021,01:08:15.82,-380.37,-954.59,-134.28,-0.79,0.24,0.43,-3.60,-41.40,51.45,35.89,118.55,
06/01/2021,01:08:15.83,-384.28,-951.66,-135.74,-1.10,-0.98,-2.07,-3.60,-41.40,51.45,35.94,118.55,
06/01/2021,01:08:15.84,-387.70,-947.75,-126.95,-2.07,0.61,-1.89,-3.45,-42.45,51.30,35.79,118.55,
06/01/2021,01:08:15.85,-389.65,-943.36,-125.49,-2.32,-0.49,0.85,-3.45,-42.45,51.30,35.60,118.55,
06/01/2021,01:08:15.85,-373.54,-937.99,-132.32,-2.68,-2.38,-1.89,-2.85,-42.60,52.20,35.94,118.55,
06/01/2021,01:08:15.86,-376.46,-945.31,-124.02,-0.73,-1.65,0.06,-4.05,-43.80,51.45,35.89,118.55,
06/01/2021,01:08:15.87,-385.25,-942.38,-141.60,-3.60,3.17,-1.04,-4.05,-43.80,51.45,35.75,118.55,
06/01/2021,01:08:15.88,-378.42,-954.10,-138.18,-0.67,0.67,0.06,-2.70,-42.75,49.80,35.94,118.55,
06/01/2021,01:08:15.89,-382.81,-949.71,-132.32,-3.66,-0.49,-1.65,-2.70,-42.75,49.80,35.89,118.55,
06/01/2021,01:08:15.89,-382.32,-947.27,-142.58,-3.84,-0.55,-0.30,-4.50,-42.75,52.05,35.79,118.55,
06/01/2021,01:08:15.90,-375.00,-945.31,-141.60,-2.87,0.61,-1.28,-4.50,-42.75,52.05,35.70,118.55,
06/01/2021,01:08:15.91,-385.74,-948.24,-129.88,-1.65,-0.12,-0.43,-3.60,-41.40,50.40,35.75,118.55,
06/01/2021,01:08:15.91,-371.09,-956.54,-132.81,-2.80,-1.95,0.18,-3.60,-41.40,50.40,35.94,118.55,
06/01/2021,01:08:15.93,-382.32,-946.78,-136.72,-0.91,-1.04,-2.20,-3.45,-42.00,50.55,35.75,118.55,
06/01/2021,01:08:15.93,-384.77,-953.12,-136.72,-2.56,-0.49,-0.85,-3.45,-42.00,50.55,35.79,118.55,
06/01/2021,01:08:15.94,-379.88,-960.94,-136.72,-0.61,1.65,-0.79,-3.45,-42.00,50.55,35.94,118.55,
06/01/2021,01:08:15.94,-378.91,-953.12,-130.86,-2.13,3.60,-0.30,-5.85,-41.40,50.70,35.79,118.55,
06/01/2021,01:08:15.95,-387.21,-954.59,-125.00,-1.83,-1.22,-0.91,-4.35,-41.10,50.40,35.55,118.55,
06/01/2021,01:08:15.97,-376.46,-942.38,-133.30,-2.99,0.85,1.16,-3.75,-42.00,51.00,35.79,118.55,
06/01/2021,01:08:15.97,-378.42,-942.87,-139.65,-2.44,0.43,0.43,-6.00,-42.00,51.00,35.46,118.55,
06/01/2021,01:08:15.98,-388.18,-944.34,-140.14,-1.28,-0.37,-0.79,-6.00,-42.00,51.00,36.13,118.55,
06/01/2021,01:08:15.98,-396.00,-936.04,-138.67,-2.13,0.12,0.85,-3.45,-42.45,51.60,35.70,118.55,
06/01/2021,01:08:15.99,-376.95,-940.92,-143.07,-3.90,-1.04,-0.12,-4.35,-41.85,50.70,35.60,118.55,
06/01/2021,01:08:16.01,-385.74,-949.71,-139.65,-1.22,-1.10,1.04,-4.35,-41.85,50.70,35.75,118.55,
06/01/2021,01:08:16.01,-382.32,-941.41,-146.48,-0.43,1.28,0.73,-4.20,-41.70,52.35,35.70,118.55,
06/01/2021,01:08:16.02,-375.98,-943.36,-137.70,-2.13,-0.12,-0.18,-4.20,-41.70,52.35,36.08,118.55,
06/01/2021,01:08:16.02,-375.98,-953.12,-129.88,-2.01,1.65,-1.95,-4.20,-41.70,52.35,35.98,118.55,
06/01/2021,01:08:16.03,-379.39,-946.78,-132.81,-2.44,3.60,1.16,-4.05,-42.60,50.70,35.89,118.56,
06/01/2021,01:08:16.05,-392.09,-948.73,-131.35,-3.66,0.98,-1.59,-3.60,-42.60,50.40,35.79,118.55,
06/01/2021,01:08:16.05,-378.91,-953.61,-149.41,-0.18,0.91,0.12,-4.80,-42.15,50.70,35.60,118.55,
06/01/2021,01:08:16.06,-384.28,-948.24,-142.09,-0.98,-0.43,0.67,-4.80,-42.15,50.70,35.79,118.55,
06/01/2021,01:08:16.06,-366.21,-951.66,-131.35,-1.34,-0.98,-1.16,-4.95,-40.05,49.50,35.94,118.56,
06/01/2021,01:08:16.07,-381.35,-946.29,-145.51,-2.62,1.04,-1.95,-3.45,-40.80,49.05,35.79,118.56,
06/01/2021,01:08:16.09,-387.21,-944.34,-139.65,-2.01,0.85,-1.65,-3.45,-40.80,50.25,35.79,118.55,
06/01/2021,01:08:16.09,-383.30,-957.52,-142.58,-3.66,0.55,0.98,-3.75,-42.75,51.60,35.60,118.55,
06/01/2021,01:08:16.10,-382.32,-953.12,-133.30,-1.83,3.29,-0.73,-3.75,-42.75,51.60,35.79,118.56,
06/01/2021,01:08:16.10,-389.65,-949.22,-126.95,-1.22,1.40,1.34,-4.20,-42.45,50.55,35.79,118.56,
06/01/2021,01:08:16.11,-380.86,-961.91,-136.72,-3.48,0.91,-1.59,-4.20,-42.45,50.55,35.94,118.56,
06/01/2021,01:08:16.12,-377.93,-949.22,-129.88,-0.91,1.10,1.46,-4.20,-42.45,50.55,35.75,118.56,
06/01/2021,01:08:16.13,-382.81,-953.61,-133.79,-2.01,1.59,-1.04,-3.00,-40.50,49.80,35.94,118.56,
06/01/2021,01:08:16.14,-386.23,-959.96,-133.79,-3.72,0.24,-0.55,-3.00,-40.50,49.80,35.70,118.56,
06/01/2021,01:08:16.14,-384.28,-951.17,-132.32,-1.10,3.29,1.04,-5.55,-43.35,49.35,35.55,118.56,
06/01/2021,01:08:16.15,-377.44,-943.85,-134.28,-2.26,3.54,-0.98,-5.55,-43.35,49.35,35.70,118.56,
06/01/2021,01:08:16.15,-380.37,-945.80,-124.02,-2.13,3.17,0.73,-3.60,-41.10,50.40,35.79,118.56,
06/01/2021,01:08:16.17,-364.75,-944.82,-140.14,-0.06,1.10,1.34,-2.85,-43.05,49.95,35.75,118.56,
06/01/2021,01:08:16.18,-393.07,-940.92,-131.35,-1.16,2.20,1.10,-2.85,-43.05,49.95,35.79,118.56,
06/01/2021,01:08:16.18,-377.44,-957.52,-133.79,0.55,1.40,3.78,-4.50,-41.25,51.00,35.79,118.56,
06/01/2021,01:08:16.19,-375.98,-944.34,-139.16,0.06,0.18,2.74,-4.50,-41.25,51.00,36.22,118.56,
06/01/2021,01:08:16.19,-369.63,-942.38,-143.55,-2.07,3.78,-0.37,-4.35,-43.35,50.40,35.94,118.56,
06/01/2021,01:08:16.24,-358.89,-937.99,-143.55,-2.74,1.46,0.91,-4.20,-42.00,51.00,35.60,118.55,
06/01/2021,01:08:16.25,-383.79,-948.73,-132.32,-2.93,1.77,1.22,-3.45,-43.20,51.00,35.75,118.55,
06/01/2021,01:08:16.26,-372.07,-951.17,-135.25,-2.01,1.59,2.20,-3.45,-43.20,51.00,35.89,118.55,
06/01/2021,01:08:16.27,-370.61,-951.17,-135.74,0.55,2.01,2.62,-3.30,-41.40,51.15,35.94,118.55,
06/01/2021,01:08:16.27,-374.02,-951.17,-137.70,-1.22,2.13,3.11,-4.80,-41.85,50.40,35.79,118.55,
06/01/2021,01:08:16.29,-371.58,-955.57,-135.25,0.37,0.30,4.88,-4.35,-43.35,50.40,35.94,118.55,
06/01/2021,01:08:16.29,-363.28,-954.10,-138.18,-2.26,2.01,1.10,-4.35,-43.35,50.40,35.89,118.55,
06/01/2021,01:08:16.30,-358.40,-957.03,-138.67,-0.61,1.71,2.62,-4.35,-43.35,50.40,35.79,118.55,
06/01/2021,01:08:16.31,-356.93,-947.75,-132.32,-0.85,1.22,2.87,-5.55,-42.15,49.65,35.89,118.55,
06/01/2021,01:08:16.31,-370.61,-963.87,-150.39,-3.05,3.05,-0.98,-5.55,-42.15,49.65,35.94,118.55,
06/01/2021,01:08:16.32,-362.30,-959.47,-133.79,-0.61,2.32,3.48,-5.55,-42.15,49.65,35.60,118.55,
06/01/2021,01:08:16.33,-374.51,-955.57,-143.07,-1.95,1.16,3.05,-3.75,-42.75,50.25,35.75,118.55,
06/01/2021,01:08:16.34,-356.45,-954.10,-138.18,-1.22,-1.40,2.44,-3.75,-42.75,50.25,35.55,118.55,
06/01/2021,01:08:16.34,-368.65,-951.66,-135.25,-0.43,2.62,1.59,-4.20,-43.50,52.05,35.70,118.55,
06/01/2021,01:08:16.35,-367.68,-944.34,-142.09,-0.24,0.98,5.18,-4.20,-43.50,52.05,35.94,118.55,
06/01/2021,01:08:16.36,-366.70,-951.17,-133.79,-0.12,0.55,3.84,-4.20,-42.45,51.00,35.94,118.55,
06/01/2021,01:08:16.37,-364.75,-952.64,-144.04,-2.50,1.89,1.65,-3.30,-41.85,50.40,35.94,118.55,
06/01/2021,01:08:16.38,-359.38,-956.54,-135.74,-2.44,1.52,3.35,-3.30,-41.85,50.40,35.75,118.55,
06/01/2021,01:08:16.38,-359.86,-952.15,-122.56,-1.71,-0.12,1.83,-3.30,-41.85,50.40,35.79,118.55,
06/01/2021,01:08:16.39,-355.47,-949.22,-137.70,-0.73,1.65,3.11,-3.30,-41.85,50.40,35.89,118.55,
06/01/2021,01:08:16.40,-358.89,-957.52,-136.23,0.18,-0.24,1.83,-2.70,-42.45,49.80,35.98,118.55,
06/01/2021,01:08:16.41,-382.81,-953.61,-130.37,-1.71,0.00,1.59,-3.75,-41.70,50.55,35.70,118.55,
06/01/2021,01:08:16.42,-358.40,-950.68,-125.98,-1.89,3.35,0.06,-3.75,-41.70,50.55,35.94,118.55,
06/01/2021,01:08:16.42,-360.35,-956.54,-121.09,-1.40,-0.30,1.89,-3.00,-41.70,50.25,35.89,118.55,
06/01/2021,01:08:16.43,-367.68,-962.40,-124.51,-1.52,1.22,0.00,-3.00,-41.70,50.25,35.94,118.55,
06/01/2021,01:08:16.44,-372.56,-945.31,-135.74,-2.32,0.30,0.85,-3.45,-42.00,50.25,35.70,118.55,
06/01/2021,01:08:16.44,-366.21,-954.59,-136.72,-2.38,-1.83,2.07,-3.45,-42.00,50.25,35.70,118.55,
06/01/2021,01:08:16.46,-371.09,-943.36,-128.91,-0.30,2.80,-0.37,-2.85,-41.10,51.45,35.79,118.55,
06/01/2021,01:08:16.46,-354.98,-949.22,-128.91,-1.65,-0.06,2.07,-3.00,-42.45,51.60,35.94,118.55,
06/01/2021,01:08:16.47,-370.61,-955.08,-128.91,-0.61,-1.52,1.65,-3.00,-42.45,51.60,35.75,118.55,
06/01/2021,01:08:16.47,-372.07,-954.59,-123.05,1.10,-1.10,0.18,-3.45,-43.20,51.00,35.94,118.55,
06/01/2021,01:08:16.48,-369.14,-948.24,-132.81,1.16,0.12,0.37,-3.45,-43.20,51.00,35.79,118.56,
06/01/2021,01:08:16.50,-373.05,-948.24,-124.51,0.06,2.68,0.67,-3.45,-42.00,49.80,35.79,118.55,
06/01/2021,01:08:16.50,-368.65,-951.66,-123.54,-0.61,0.98,0.91,-3.75,-41.70,49.80,35.75,118.55,
06/01/2021,01:08:16.51,-363.28,-942.87,-124.02,0.37,0.61,0.49,-3.75,-41.70,49.80,35.75,118.55,
06/01/2021,01:08:16.51,-357.91,-942.87,-134.77,-0.91,-0.73,1.77,-3.75,-41.70,49.80,35.79,118.56,
06/01/2021,01:08:16.52,-378.42,-940.92,-125.49,-0.85,-0.37,2.68,-3.75,-41.70,49.80,35.89,118.56,
06/01/2021,01:08:16.54,-358.40,-941.41,-123.05,0.79,0.43,2.68,-4.20,-41.25,50.55,35.60,118.55,
06/01/2021,01:08:16.54,-376.95,-952.64,-124.02,-1.22,0.00,2.74,-2.70,-42.45,50.55,35.79,118.56,
06/01/2021,01:08:16.55,-366.21,-944.82,-122.56,-0.06,-1.77,2.44,-2.70,-42.45,50.55,35.94,118.56,
06/01/2021,01:08:16.55,-362.79,-959.47,-140.14,-2.38,-1.46,2.44,-3.30,-42.60,49.65,35.79,118.56,
06/01/2021,01:08:16.56,-372.07,-954.10,-137.21,-2.20,-0.98,-0.12,-3.30,-42.60,49.65,35.94,118.56,
06/01/2021,01:08:16.57,-369.14,-947.75,-120.12,0.67,0.06,1.04,-4.50,-41.70,49.80,35.94,118.56,
06/01/2021,01:08:16.58,-380.37,-945.31,-132.81,0.73,-0.12,0.73,-4.50,-41.70,49.80,35.75,118.56,
06/01/2021,01:08:16.59,-368.16,-961.91,-123.05,-0.37,-1.52,2.07,-4.50,-41.70,49.80,35.79,118.56,
06/01/2021,01:08:16.59,-372.07,-959.96,-138.67,-1.04,-2.87,2.32,-5.10,-41.85,49.65,35.70,118.56,
06/01/2021,01:08:16.60,-365.23,-954.59,-125.00,-0.49,-1.52,0.85,-5.10,-41.85,49.65,35.89,118.56,
06/01/2021,01:08:16.60,-372.07,-948.73,-131.35,-0.67,0.37,1.04,-5.10,-41.85,49.65,35.98,118.56,
06/01/2021,01:08:16.62,-384.28,-952.64,-149.41,2.68,-2.20,2.20,-2.85,-41.40,50.70,35.70,118.56,
06/01/2021,01:08:16.63,-382.81,-949.71,-143.55,-2.50,-0.12,3.35,-5.10,-42.15,50.70,35.94,118.56,
06/01/2021,01:08:16.63,-363.77,-955.08,-143.07,-1.16,-2.44,-0.43,-4.95,-41.70,51.00,35.94,118.56,
06/01/2021,01:08:16.64,-365.72,-946.78,-147.46,-0.12,-2.01,2.56,-4.95,-41.70,51.00,36.08,118.56,
06/01/2021,01:08:16.64,-385.74,-953.61,-119.63,1.77,0.61,2.62,-2.10,-43.05,51.90,35.98,118.56,
06/01/2021,01:08:16.66,-369.14,-960.94,-131.84,-0.85,-0.98,2.32,-3.60,-42.15,51.15,35.94,118.56,
06/01/2021,01:08:16.67,-368.16,-953.61,-149.41,-0.67,-0.43,4.09,-2.55,-43.35,51.15,35.94,118.56,
06/01/2021,01:08:16.67,-375.49,-942.87,-142.09,-2.32,0.24,1.65,-2.55,-43.35,51.15,35.94,118.56,
06/01/2021,01:08:16.68,-380.37,-936.52,-142.09,-0.30,-0.55,2.93,-2.55,-43.35,51.15,35.94,118.56,
06/01/2021,01:08:16.68,-373.05,-950.20,-124.51,-0.79,-1.22,0.61,-3.75,-42.00,51.00,35.94,118.56,
06/01/2021,01:08:16.70,-370.12,-952.15,-126.95,-0.98,1.22,1.95,-3.75,-42.00,51.00,35.89,118.56,
06/01/2021,01:08:16.70,-377.93,-951.66,-140.62,0.00,0.98,1.04,-4.20,-41.25,51.60,35.94,118.56,
06/01/2021,01:08:16.71,-383.30,-934.08,-134.28,-2.26,-1.65,1.46,-4.20,-41.25,51.60,35.79,118.56,
06/01/2021,01:08:16.76,-384.77,-950.20,-132.81,-4.02,-0.43,3.48,-4.20,-42.45,51.30,36.08,118.55,
06/01/2021,01:08:16.78,-385.25,-956.05,-136.72,-3.41,-2.01,3.23,-4.05,-42.15,50.70,35.94,118.55,
06/01/2021,01:08:16.79,-387.70,-948.73,-129.88,-2.38,-0.18,4.63,-3.75,-44.25,51.00,35.75,118.55,
06/01/2021,01:08:16.80,-388.18,-948.73,-118.16,-3.66,-0.06,4.76,-3.75,-44.25,51.00,35.75,118.55,
06/01/2021,01:08:16.81,-379.39,-940.92,-128.42,-1.65,-0.85,6.34,-3.45,-42.75,50.25,35.60,118.55,
06/01/2021,01:08:16.81,-374.02,-944.82,-130.86,-2.13,-4.21,4.02,-4.20,-41.70,50.55,35.79,118.55,
06/01/2021,01:08:16.82,-366.21,-937.50,-129.39,-0.49,-2.44,4.09,-4.20,-41.70,50.55,35.98,118.55,
06/01/2021,01:08:16.82,-360.84,-957.52,-127.93,-2.68,-1.95,3.05,-3.30,-42.15,48.90,35.94,118.55,
06/01/2021,01:08:16.84,-382.32,-937.50,-128.42,-0.43,-0.61,3.05,-1.05,-42.60,49.65,35.89,118.55,
06/01/2021,01:08:16.85,-371.09,-942.38,-117.68,-2.62,-0.49,6.28,-4.20,-42.75,52.05,35.94,118.55,
06/01/2021,01:08:16.85,-379.39,-938.48,-127.44,-0.06,-2.68,3.35,-4.80,-42.15,51.15,35.89,118.55,
06/01/2021,01:08:16.86,-366.21,-944.82,-143.55,-5.00,-0.49,3.17,-4.80,-42.15,51.15,35.75,118.55,
06/01/2021,01:08:16.86,-369.63,-945.31,-125.98,-2.80,-2.99,3.54,-2.85,-41.40,50.40,35.70,118.55,
06/01/2021,01:08:16.88,-364.26,-946.78,-123.54,-1.34,-1.46,4.09,-2.85,-41.40,50.40,35.89,118.55,
06/01/2021,01:08:16.89,-370.61,-945.80,-111.33,-2.87,-3.05,3.35,-3.75,-43.20,51.60,35.94,118.55,
06/01/2021,01:08:16.89,-381.35,-960.94,-115.23,-3.66,-2.07,4.76,-3.75,-43.20,51.60,35.60,118.55,
06/01/2021,01:08:16.90,-370.61,-949.71,-122.56,-0.55,-2.01,2.01,-3.75,-43.20,51.60,35.79,118.55,
06/01/2021,01:08:16.90,-384.28,-948.24,-112.79,-4.21,-2.87,0.91,-3.45,-43.20,50.55,35.89,118.55,
06/01/2021,01:08:16.92,-387.21,-946.78,-126.95,-1.83,-0.49,3.48,-3.30,-43.35,50.70,35.70,118.55,
06/01/2021,01:08:16.93,-370.61,-937.50,-126.46,-2.01,-1.22,3.11,-3.45,-42.00,50.25,35.79,118.55,
06/01/2021,01:08:16.93,-377.93,-930.18,-125.49,-2.01,-1.95,2.38,-3.45,-42.00,50.25,35.70,118.55,
06/01/2021,01:08:16.94,-363.28,-958.98,-124.02,-3.78,-1.95,-0.18,-4.35,-42.15,51.15,36.08,118.55,
06/01/2021,01:08:16.94,-382.32,-947.27,-118.65,-0.37,-1.83,5.79,-4.20,-42.45,50.55,35.79,118.55,
06/01/2021,01:08:16.96,-375.98,-945.80,-131.84,-3.60,-1.34,2.26,-1.80,-41.10,50.70,35.94,118.55,
06/01/2021,01:08:16.97,-363.77,-957.03,-133.79,-2.99,-2.38,3.35,-1.80,-41.10,50.70,35.70,118.55,
06/01/2021,01:08:16.97,-373.05,-947.75,-133.79,-0.73,-1.04,2.56,-1.80,-41.10,50.70,35.75,118.55,
06/01/2021,01:08:16.98,-370.12,-940.92,-131.35,-0.12,-0.43,4.09,-3.60,-41.40,51.90,35.79,118.55,
06/01/2021,01:08:16.98,-399.41,-952.64,-126.46,-0.06,-1.10,2.62,-3.60,-41.40,51.90,36.13,118.55,
06/01/2021,01:08:17.00,-375.49,-956.54,-135.25,-2.13,-0.91,4.21,-3.00,-41.70,51.00,36.08,118.55,
06/01/2021,01:08:17.00,-380.86,-950.68,-134.77,-0.61,-0.30,1.77,-1.65,-41.70,50.55,35.55,118.55,
06/01/2021,01:08:17.01,-377.44,-947.27,-129.88,-0.24,-1.71,3.41,-1.65,-41.70,50.55,35.79,118.55,
06/01/2021,01:08:17.02,-389.16,-949.22,-150.88,-0.24,-4.27,0.98,-3.75,-41.25,49.50,35.89,118.55,
06/01/2021,01:08:17.02,-386.23,-959.96,-134.77,-0.06,-2.38,1.95,-3.75,-41.25,49.50,35.79,118.55,
06/01/2021,01:08:17.03,-377.93,-953.61,-134.77,-1.16,-0.06,0.98,-2.85,-41.40,50.40,35.75,118.55,
06/01/2021,01:08:17.04,-379.39,-950.20,-140.62,-1.04,-2.20,6.28,-3.45,-42.00,51.00,35.94,118.55,
06/01/2021,01:08:17.05,-375.49,-955.08,-149.41,0.55,-1.89,1.71,-3.45,-42.00,51.00,35.75,118.55,
06/01/2021,01:08:17.06,-392.09,-951.17,-139.16,-1.04,-0.55,0.43,-3.45,-42.00,51.00,35.70,118.55,
06/01/2021,01:08:17.06,-381.84,-940.43,-136.23,-0.85,-3.29,2.62,-3.45,-42.00,51.00,35.94,118.55,
06/01/2021,01:08:17.07,-396.97,-961.43,-136.23,0.98,-2.80,4.63,-2.55,-41.85,52.20,35.60,118.55,
06/01/2021,01:08:17.08,-395.02,-956.05,-145.02,-0.37,-2.01,-0.30,-3.00,-43.95,51.30,35.70,118.55,
06/01/2021,01:08:17.09,-401.37,-948.73,-135.74,-2.07,-2.32,1.40,-3.00,-43.95,51.30,35.79,118.55,
06/01/2021,01:08:17.10,-392.58,-951.66,-136.23,-1.52,0.12,2.62,-3.00,-42.75,51.30,35.94,118.55,
06/01/2021,01:08:17.10,-385.74,-943.85,-139.16,-1.83,-2.50,1.40,-3.00,-42.75,51.30,35.70,118.55,
06/01/2021,01:08:17.11,-400.39,-947.27,-140.14,0.12,-1.77,1.46,-4.05,-42.15,50.70,35.98,118.55,
06/01/2021,01:08:17.12,-377.44,-950.68,-135.25,-1.95,-2.50,5.55,-3.00,-42.00,52.05,35.60,118.55,
06/01/2021,01:08:17.13,-383.79,-952.15,-141.11,-0.98,-2.56,1.04,-3.00,-42.00,52.05,35.79,118.55,
06/01/2021,01:08:17.14,-387.21,-948.73,-136.72,-3.11,-1.52,2.44,-2.70,-42.00,51.30,35.70,118.55,
06/01/2021,01:08:17.14,-398.93,-941.89,-140.14,-2.38,-0.37,4.39,-2.70,-42.00,51.30,35.60,118.55,
06/01/2021,01:08:17.15,-398.44,-962.40,-146.48,-1.52,0.06,0.73,-3.75,-41.70,51.00,35.75,118.55,
06/01/2021,01:08:17.16,-394.53,-941.89,-126.95,-1.28,-1.95,2.80,-3.75,-40.80,49.80,36.08,118.55,
06/01/2021,01:08:17.17,-391.11,-938.96,-137.70,-2.62,-3.54,0.98,-3.75,-40.80,49.80,35.94,118.55,
06/01/2021,01:08:17.17,-389.16,-950.68,-124.02,-3.66,-2.32,4.51,-2.70,-42.75,51.30,35.89,118.55,
06/01/2021,01:08:17.18,-410.16,-947.75,-127.93,-1.22,0.98,2.80,-2.70,-42.75,51.30,35.79,118.55,
06/01/2021,01:08:17.19,-396.00,-942.38,-126.95,-3.23,-0.67,-2.01,-2.70,-42.75,51.30,35.79,118.56,
06/01/2021,01:08:17.19,-391.60,-965.33,-133.30,-2.62,-0.06,1.22,-2.70,-42.75,51.30,35.75,118.56,
06/01/2021,01:08:17.21,-385.74,-943.36,-122.56,0.00,0.18,3.05,-1.95,-42.45,51.00,35.79,118.55,
06/01/2021,01:08:17.21,-376.46,-949.71,-137.70,1.34,-1.83,4.33,-3.75,-42.00,49.50,35.55,118.55,
06/01/2021,01:08:17.22,-390.14,-952.64,-125.98,1.40,-0.91,2.93,-3.75,-42.00,49.50,35.60,118.56,
06/01/2021,01:08:17.25,-382.32,-955.08,-142.58,-2.74,1.83,0.61,-3.60,-42.60,51.45,35.94,118.55,
06/01/2021,01:08:17.27,-385.74,-945.80,-120.61,-0.79,1.22,1.34,-4.50,-40.80,49.80,35.94,118.55,
06/01/2021,01:08:17.29,-378.91,-944.82,-118.16,0.00,-1.52,5.79,-2.85,-40.35,49.95,35.79,118.55,
06/01/2021,01:08:17.29,-386.72,-953.61,-116.21,-0.73,-1.52,2.93,-2.85,-40.35,49.95,35.89,118.55,
06/01/2021,01:08:17.30,-377.93,-928.71,-109.86,-1.04,-1.95,1.52,-2.70,-41.70,52.05,36.08,118.55,
06/01/2021,01:08:17.30,-388.18,-943.36,-134.28,-1.22,0.06,2.68,-3.60,-41.85,51.15,35.79,118.55,
06/01/2021,01:08:17.31,-373.05,-937.99,-117.19,0.55,-1.10,0.37,-3.60,-41.85,51.15,35.79,118.55,
06/01/2021,01:08:17.33,-381.84,-941.89,-123.54,-2.32,0.55,2.01,-4.05,-41.85,49.95,35.79,118.55,
06/01/2021,01:08:17.33,-370.61,-958.01,-118.65,-2.50,-0.98,1.46,-4.05,-41.85,49.95,35.79,118.55,
06/01/2021,01:08:17.34,-383.79,-950.68,-127.93,-0.61,-0.18,2.44,-1.65,-41.25,51.00,35.94,118.55,
06/01/2021,01:08:17.34,-386.72,-951.66,-116.21,0.00,2.13,3.54,-1.65,-41.25,51.00,35.89,118.55,
06/01/2021,01:08:17.35,-379.88,-946.78,-125.49,0.73,-1.40,0.30,-1.65,-41.25,51.00,35.60,118.55,
06/01/2021,01:08:17.36,-382.32,-954.10,-114.26,0.98,-1.28,3.05,-1.05,-41.10,51.45,35.79,118.55,
06/01/2021,01:08:17.37,-385.25,-953.61,-118.65,-0.85,0.73,-0.98,-1.05,-41.10,51.45,35.98,118.55,
06/01/2021,01:08:17.38,-387.70,-949.22,-120.61,1.22,-1.16,1.46,-2.70,-41.70,52.05,35.94,118.55,
06/01/2021,01:08:17.38,-374.51,-930.18,-126.46,-1.16,-3.66,-0.30,-2.70,-41.70,52.05,35.98,118.55,
06/01/2021,01:08:17.39,-384.28,-965.33,-136.23,0.37,-0.12,2.38,-3.00,-41.70,51.00,35.89,118.55,
06/01/2021,01:08:17.39,-375.49,-953.12,-131.84,-0.24,-0.79,1.28,-3.75,-42.00,49.80,35.79,118.55,
06/01/2021,01:08:17.41,-384.28,-954.10,-125.98,0.67,-1.89,-0.98,-2.40,-42.00,51.30,35.79,118.55,
06/01/2021,01:08:17.42,-384.28,-948.73,-116.21,0.85,-1.34,0.98,-2.70,-42.00,51.60,36.13,118.55,
06/01/2021,01:08:17.42,-388.18,-951.17,-129.39,2.50,-0.91,1.52,-2.70,-42.00,51.60,35.79,118.55,
06/01/2021,01:08:17.43,-388.67,-942.38,-127.44,0.30,-4.45,0.67,-4.05,-41.85,51.45,35.79,118.55,
06/01/2021,01:08:17.43,-374.51,-954.10,-129.88,2.26,-3.84,0.73,-4.05,-41.85,51.45,35.89,118.55,
06/01/2021,01:08:17.45,-389.65,-941.41,-131.35,-0.67,0.67,-2.99,-4.05,-42.60,52.20,35.60,118.55,
06/01/2021,01:08:17.46,-381.35,-935.06,-123.54,1.34,-0.67,-0.49,-4.05,-42.60,52.20,35.75,118.55,
06/01/2021,01:08:17.46,-369.63,-945.80,-137.21,-0.98,-0.79,0.79,-4.05,-42.60,52.20,35.94,118.55,
06/01/2021,01:08:17.47,-386.23,-947.75,-124.51,-1.83,0.06,-0.24,-4.05,-41.85,52.20,35.75,118.55,
06/01/2021,01:08:17.47,-391.60,-951.66,-131.84,-1.22,-1.52,-0.73,-4.05,-41.85,52.20,35.89,118.55,
06/01/2021,01:08:17.49,-387.70,-941.41,-131.35,-1.22,0.24,0.85,-3.30,-41.10,51.15,35.70,118.55,
06/01/2021,01:08:17.50,-380.37,-951.66,-119.63,0.79,-0.98,0.06,-3.75,-41.25,52.80,35.70,118.55,
06/01/2021,01:08:17.50,-392.09,-944.34,-131.35,2.26,-1.46,0.43,-3.75,-41.25,52.80,35.70,118.55,
06/01/2021,01:08:17.51,-399.90,-945.80,-128.91,-0.73,-1.22,-0.67,-3.00,-41.70,51.30,35.70,118.55,
06/01/2021,01:08:17.51,-400.88,-937.01,-124.02,-2.62,-1.71,-1.16,-3.00,-41.70,51.30,35.98,118.55,
06/01/2021,01:08:17.53,-396.97,-937.50,-132.81,1.28,-1.46,1.52,-1.80,-41.10,52.65,35.89,118.55,
06/01/2021,01:08:17.53,-386.23,-954.10,-128.91,-2.38,0.85,-1.04,-4.05,-41.85,50.70,35.75,118.55,
06/01/2021,01:08:17.54,-390.14,-947.75,-131.84,-0.67,-1.89,-1.83,-4.05,-41.85,50.70,35.79,118.55,
06/01/2021,01:08:17.55,-393.55,-935.55,-122.56,1.59,-0.18,3.41,-4.05,-41.85,50.70,35.94,118.55,
06/01/2021,01:08:17.55,-396.97,-949.22,-122.56,-1.22,1.04,-0.06,-4.05,-41.85,50.70,35.98,118.55,
06/01/2021,01:08:17.56,-386.72,-943.36,-135.74,0.43,-2.20,-0.43,-3.30,-42.60,50.40,35.75,118.55,
06/01/2021,01:08:17.57,-382.32,-941.89,-124.51,-0.43,-2.44,0.61,-3.30,-42.60,50.40,35.75,118.55,
06/01/2021,01:08:17.58,-398.44,-944.82,-127.93,-0.49,-1.16,1.40,-3.60,-43.05,51.15,35.55,118.55,
06/01/2021,01:08:17.59,-385.74,-944.82,-122.56,0.55,0.30,2.44,-3.75,-42.45,52.80,35.94,118.55,
06/01/2021,01:08:17.59,-378.91,-945.80,-105.47,0.85,-0.55,1.89,-3.75,-42.45,52.80,35.79,118.55,
06/01/2021,01:08:17.60,-404.79,-936.52,-128.91,-1.89,-2.26,0.12,-3.00,-40.80,52.35,35.89,118.55,
06/01/2021,01:08:17.61,-396.97,-936.52,-122.56,-0.43,-0.49,-0.79,-1.80,-39.90,51.15,35.98,118.55,
06/01/2021,01:08:17.62,-391.60,-940.92,-118.65,1.83,-2.50,2.13,-4.05,-42.60,51.90,36.08,118.55,
06/01/2021,01:08:17.62,-402.34,-929.69,-107.42,1.28,-0.43,2.93,-4.20,-42.45,51.00,36.08,118.55,
06/01/2021,01:08:17.63,-403.32,-937.99,-123.05,-1.59,-0.73,3.17,-4.20,-42.45,51.00,35.94,118.55,
06/01/2021,01:08:17.64,-396.00,-945.31,-121.09,0.12,-2.07,1.46,-4.20,-42.45,51.00,35.98,118.56,
06/01/2021,01:08:17.65,-388.18,-935.06,-109.86,1.95,-1.89,2.68,-2.10,-40.65,50.70,35.98,118.55,
06/01/2021,01:08:17.66,-391.11,-938.96,-111.33,2.50,-0.24,1.83,-2.10,-40.65,50.70,35.60,118.55,
06/01/2021,01:08:17.66,-396.97,-929.20,-119.63,0.18,2.74,1.65,-2.10,-40.65,50.70,35.70,118.56,
06/01/2021,01:08:17.67,-399.41,-936.04,-121.58,1.46,-0.91,2.74,-3.45,-41.70,51.30,35.94,118.56,
06/01/2021,01:08:17.68,-392.58,-934.08,-99.61,2.32,-1.65,3.54,-3.30,-41.85,50.70,35.75,118.56,
06/01/2021,01:08:17.69,-386.23,-938.96,-103.03,3.96,0.30,1.83,-2.70,-41.70,52.35,35.89,118.55,
06/01/2021,01:08:17.70,-390.14,-946.78,-109.86,0.98,-0.91,3.54,-3.60,-40.65,51.15,35.98,118.56,
06/01/2021,01:08:17.70,-402.83,-928.71,-121.09,-2.20,-0.06,2.87,-3.60,-40.65,51.15,35.55,118.56,
06/01/2021,01:08:17.71,-391.60,-951.66,-111.82,1.46,-0.79,4.70,-2.40,-42.75,51.60,35.75,118.56,
06/01/2021,01:08:17.72,-390.62,-942.38,-121.58,2.07,0.55,3.29,-2.70,-42.45,51.60,35.94,118.56,
06/01/2021,01:08:17.72,-390.14,-939.45,-122.07,1.59,0.79,3.17,-2.70,-42.45,51.60,35.89,118.56,
06/01/2021,01:08:17.77,-397.46,-945.80,-113.28,0.43,1.22,4.09,-3.00,-42.00,51.60,35.98,118.55,
06/01/2021,01:08:17.78,-405.27,-946.29,-117.19,0.67,2.87,3.48,-2.10,-40.65,53.70,35.79,118.55,
06/01/2021,01:08:17.79,-396.97,-944.34,-102.05,1.77,3.17,-0.61,-3.60,-41.40,52.20,35.60,118.55,
06/01/2021,01:08:17.79,-406.74,-935.55,-114.75,0.73,3.60,5.06,-3.60,-41.40,52.20,35.60,118.55,
06/01/2021,01:08:17.80,-400.88,-931.64,-107.91,4.02,3.60,3.11,-3.30,-41.10,50.40,36.08,118.55,
06/01/2021,01:08:17.81,-389.65,-960.45,-112.79,2.07,2.62,1.83,-2.55,-39.15,49.95,35.79,118.55,
06/01/2021,01:08:17.82,-392.09,-947.75,-109.86,3.29,3.29,0.98,-2.55,-39.15,49.95,35.79,118.55,
06/01/2021,01:08:17.83,-401.37,-956.54,-111.82,2.68,2.74,2.87,-2.55,-39.15,49.95,35.70,118.55,
06/01/2021,01:08:17.83,-402.83,-943.36,-100.10,4.09,0.49,4.57,-2.85,-41.85,52.95,35.75,118.55,
06/01/2021,01:08:17.84,-404.30,-945.31,-122.56,2.38,3.84,2.50,-2.85,-41.85,52.95,35.70,118.55,
06/01/2021,01:08:17.85,-396.97,-940.92,-104.49,7.20,5.79,6.16,-2.55,-41.40,51.90,35.70,118.55,
06/01/2021,01:08:17.86,-397.46,-938.48,-116.70,3.48,5.61,1.77,-2.55,-41.40,51.90,35.55,118.55,
06/01/2021,01:08:17.86,-393.55,-937.99,-107.91,5.18,7.62,-0.61,-2.55,-41.40,51.90,35.79,118.55,
06/01/2021,01:08:17.87,-390.62,-946.29,-106.93,3.90,5.73,2.50,-2.10,-41.85,51.90,35.79,118.55,
06/01/2021,01:08:17.88,-397.46,-945.31,-120.12,3.66,3.29,-0.06,-2.10,-40.65,51.90,35.79,118.55,
06/01/2021,01:08:17.88,-399.90,-951.66,-119.14,4.45,6.10,2.20,-2.10,-40.65,51.90,35.75,118.55,
06/01/2021,01:08:17.90,-397.95,-937.01,-101.56,4.09,5.00,1.59,-1.95,-41.25,52.35,35.79,118.55,
06/01/2021,01:08:17.90,-406.74,-954.10,-106.45,3.96,7.44,-1.22,-1.95,-41.25,52.35,35.79,118.55,
06/01/2021,01:08:17.91,-405.27,-949.22,-112.30,3.90,7.13,0.43,-1.65,-40.80,52.80,35.70,118.55,
06/01/2021,01:08:17.92,-400.39,-951.66,-112.79,5.98,6.71,0.67,-1.65,-40.80,52.80,35.79,118.55,
06/01/2021,01:08:17.92,-400.88,-953.61,-113.77,6.40,8.11,0.91,-3.45,-39.75,52.35,35.94,118.55,
06/01/2021,01:08:17.94,-394.04,-942.87,-122.56,6.95,5.61,1.22,-1.95,-40.80,52.05,35.94,118.55,
06/01/2021,01:08:17.94,-397.95,-946.78,-107.42,6.28,6.28,-0.18,-1.95,-40.80,52.05,35.89,118.55,
06/01/2021,01:08:17.95,-395.02,-942.87,-122.56,4.27,8.11,-1.22,-1.95,-40.80,52.05,36.08,118.55,
06/01/2021,01:08:17.96,-395.51,-945.31,-110.35,6.52,8.84,1.89,-1.95,-40.80,52.05,35.79,118.55,
06/01/2021,01:08:17.96,-389.65,-943.36,-118.16,5.06,9.21,0.24,-1.65,-41.25,52.05,35.60,118.55,
06/01/2021,01:08:17.98,-410.16,-949.22,-111.33,2.93,10.06,-1.28,-2.10,-42.60,52.65,35.89,118.55,
06/01/2021,01:08:17.98,-393.55,-942.87,-102.54,6.34,9.51,-1.22,-2.10,-42.60,52.65,35.79,118.55,
06/01/2021,01:08:17.99,-408.69,-949.22,-115.23,6.22,10.98,-0.12,-1.35,-42.15,52.65,35.75,118.55,
06/01/2021,01:08:17.99,-404.30,-943.36,-115.72,4.70,12.38,-2.20,-1.35,-42.15,52.65,35.79,118.55,
06/01/2021,01:08:18.00,-394.04,-934.08,-127.44,4.33,10.98,0.43,-1.80,-39.90,52.20,35.89,118.55,
06/01/2021,01:08:18.01,-398.93,-933.59,-124.51,5.67,13.23,-0.30,-2.85,-39.15,51.15,35.79,118.55,
06/01/2021,01:08:18.02,-398.93,-938.96,-103.03,4.02,13.17,-3.05,-2.85,-39.15,51.15,35.79,118.55,
06/01/2021,01:08:18.03,-401.37,-939.94,-106.45,5.85,12.50,-0.61,-2.55,-40.65,53.25,35.94,118.55,
06/01/2021,01:08:18.03,-398.44,-943.36,-114.26,7.87,11.28,0.43,-2.55,-40.65,53.25,35.79,118.55,
06/01/2021,01:08:18.04,-404.79,-950.20,-116.21,3.96,13.23,-1.89,-2.55,-40.65,53.25,36.08,118.55,
06/01/2021,01:08:18.05,-407.23,-935.06,-115.72,4.33,12.44,-3.48,-2.55,-40.65,53.25,35.75,118.56,
06/01/2021,01:08:18.06,-418.95,-944.82,-129.39,2.20,11.65,0.37,-2.40,-41.25,51.30,35.94,118.55,
06/01/2021,01:08:18.07,-426.27,-940.43,-119.14,4.82,17.50,0.49,-4.35,-41.40,53.25,35.94,118.55,
06/01/2021,01:08:18.07,-419.43,-953.12,-109.38,4.15,15.12,1.34,-4.35,-41.40,53.25,35.75,118.56,
06/01/2021,01:08:18.08,-427.73,-958.50,-117.19,6.22,12.20,-0.73,-0.90,-40.80,52.80,35.89,118.56,
06/01/2021,01:08:18.08,-419.43,-940.43,-115.23,4.63,13.78,-2.44,-0.90,-40.80,52.80,35.89,118.56,
06/01/2021,01:08:18.10,-419.43,-937.99,-118.65,1.83,15.37,2.38,-2.10,-42.60,53.25,35.89,118.55,
06/01/2021,01:08:18.11,-419.43,-942.38,-106.45,5.67,16.71,1.40,-2.40,-40.50,52.05,35.70,118.56,
06/01/2021,01:08:18.11,-407.23,-936.04,-102.54,2.80,15.43,0.91,-2.40,-40.50,52.05,35.70,118.56,
06/01/2021,01:08:18.12,-415.04,-942.38,-110.84,2.56,17.32,1.16,-2.10,-41.10,52.65,35.79,118.56,
06/01/2021,01:08:18.12,-414.55,-934.08,-103.03,3.84,14.70,1.77,-2.10,-41.10,52.65,35.79,118.56,
06/01/2021,01:08:18.14,-416.99,-939.94,-105.47,3.60,13.78,3.78,-1.20,-40.50,53.55,35.75,118.56,
06/01/2021,01:08:18.15,-419.43,-956.05,-106.93,3.17,16.16,4.45,-1.20,-40.50,53.55,35.89,118.56,
06/01/2021,01:08:18.15,-401.37,-953.12,-92.77,2.50,14.02,1.89,-1.20,-40.50,53.55,35.94,118.56,
06/01/2021,01:08:18.16,-411.13,-938.48,-93.26,2.50,16.65,4.82,-1.80,-41.10,53.25,36.08,118.56,
06/01/2021,01:08:18.16,-413.57,-948.24,-104.98,2.38,17.68,4.51,-1.80,-41.10,53.25,35.55,118.56,
06/01/2021,01:08:18.17,-412.60,-950.20,-109.38,2.13,17.50,4.63,-0.15,-40.50,52.35,35.79,118.56,
06/01/2021,01:08:18.19,-398.93,-953.12,-83.98,3.84,15.00,6.77,-0.45,-40.05,52.80,35.89,118.56,
06/01/2021,01:08:18.19,-396.48,-953.12,-100.59,2.62,16.95,3.78,-1.95,-41.70,51.60,35.79,118.56,
06/01/2021,01:08:18.20,-390.62,-943.85,-86.43,2.99,12.99,5.06,-1.05,-40.35,53.25,35.94,118.56,
06/01/2021,01:08:18.20,-399.41,-943.36,-95.70,2.32,15.43,4.21,-1.05,-40.35,53.25,35.89,118.56,
06/01/2021,01:08:18.21,-406.25,-953.12,-100.10,2.68,14.57,4.45,-0.30,-40.65,54.75,36.08,118.56,
06/01/2021,01:08:18.23,-382.81,-944.34,-101.07,3.23,14.76,5.91,-0.30,-40.65,54.75,35.75,118.56,
06/01/2021,01:08:18.23,-393.55,-942.87,-97.17,3.23,16.46,5.30,-0.45,-41.25,54.15,35.89,118.56,
06/01/2021,01:08:18.24,-392.58,-944.34,-90.82,0.67,17.56,3.17,-0.45,-41.25,54.15,35.94,118.56,
06/01/2021,01:08:18.27,-384.77,-948.73,-87.89,2.07,15.79,4.94,0.60,-40.65,51.90,35.94,118.55,
06/01/2021,01:08:18.29,-392.09,-947.75,-83.50,6.16,15.12,4.82,-0.60,-39.90,52.65,36.08,118.55,
06/01/2021,01:08:18.30,-396.97,-948.24,-99.61,2.38,17.26,4.09,1.05,-39.90,53.70,35.75,118.55,
06/01/2021,01:08:18.31,-398.93,-953.12,-91.31,4.51,16.59,5.37,1.05,-39.90,53.70,35.75,118.55,
06/01/2021,01:08:18.31,-396.48,-943.85,-97.66,3.23,16.34,4.70,1.05,-39.90,53.70,35.79,118.55,
06/01/2021,01:08:18.32,-395.51,-947.27,-92.77,3.48,19.02,4.45,0.15,-40.05,53.55,35.70,118.55,
06/01/2021,01:08:18.33,-401.37,-954.10,-100.59,4.33,17.26,2.13,0.15,-40.05,53.55,35.60,118.55,
06/01/2021,01:08:18.33,-392.58,-948.24,-83.98,5.00,14.39,4.09,0.15,-40.05,53.55,35.79,118.55,
06/01/2021,01:08:18.35,-396.00,-942.87,-96.19,5.73,17.07,4.63,0.30,-40.35,53.70,35.89,118.55,
06/01/2021,01:08:18.35,-397.46,-929.69,-90.82,7.07,18.11,5.43,0.30,-40.35,53.70,35.89,118.55,
06/01/2021,01:08:18.36,-382.81,-956.54,-99.61,3.66,16.95,4.15,-0.45,-40.05,52.80,35.94,118.55,
06/01/2021,01:08:18.37,-393.07,-952.15,-100.59,6.34,18.05,2.62,-0.45,-40.05,52.80,35.79,118.55,
06/01/2021,01:08:18.37,-388.18,-945.80,-88.87,6.28,18.17,6.04,1.80,-40.65,53.25,35.79,118.55,
06/01/2021,01:08:18.39,-392.09,-955.57,-83.01,9.63,19.63,4.70,1.35,-38.70,52.65,35.98,118.55,
06/01/2021,01:08:18.39,-393.55,-956.05,-86.91,6.83,17.44,6.46,1.35,-39.90,53.25,35.98,118.55,
06/01/2021,01:08:18.40,-378.91,-959.47,-97.66,9.63,17.26,3.96,1.35,-39.90,53.25,35.55,118.55,
06/01/2021,01:08:18.40,-393.07,-946.78,-88.87,6.46,18.29,2.99,1.35,-39.90,53.25,35.98,118.55,
06/01/2021,01:08:18.41,-396.97,-957.03,-92.29,7.93,18.29,6.10,0.30,-40.35,52.65,35.79,118.55,
06/01/2021,01:08:18.43,-359.38,-944.34,-111.33,7.99,19.21,1.10,0.30,-40.35,52.65,35.89,118.55,
06/01/2021,01:08:18.43,-397.46,-953.12,-101.56,9.33,18.72,3.17,-1.20,-39.75,54.60,35.98,118.55,
06/01/2021,01:08:18.44,-394.04,-937.99,-93.26,6.34,19.09,2.62,1.35,-39.90,53.70,35.89,118.55,
06/01/2021,01:08:18.44,-396.97,-948.73,-105.47,7.32,18.11,3.78,1.35,-39.90,53.70,35.75,118.55,
06/01/2021,01:08:18.45,-379.88,-956.05,-92.77,7.44,18.60,1.59,0.90,-40.05,52.80,35.75,118.55,
06/01/2021,01:08:18.46,-388.18,-954.10,-102.05,9.76,18.41,2.01,0.90,-40.05,52.80,35.70,118.55,
06/01/2021,01:08:18.47,-394.53,-953.61,-105.47,8.54,18.60,3.11,0.45,-39.00,54.15,35.94,118.55,
06/01/2021,01:08:18.48,-394.04,-945.31,-115.23,5.91,18.96,4.82,0.90,-39.00,54.15,35.79,118.55,
06/01/2021,01:08:18.48,-397.46,-949.71,-109.86,7.26,17.74,3.11,0.90,-39.75,54.60,35.75,118.55,
06/01/2021,01:08:18.49,-375.49,-936.04,-110.35,6.71,18.72,-0.79,0.90,-38.55,53.10,35.98,118.56,
06/01/2021,01:08:18.50,-390.14,-948.73,-97.17,7.38,20.00,3.66,0.90,-38.55,53.10,35.89,118.56,
06/01/2021,01:08:18.51,-382.81,-957.03,-99.12,5.30,19.21,0.91,2.10,-37.95,53.70,35.79,118.55,
