rtcDate,rtcTime,aX,aY,aZ,gX,gY,gZ,mX,mY,mZ,imu_degC,output_Hz,
06/01/2021,01:09:10.37,225.59,-932.62,380.37,18.11,-9.27,-64.70,-166.95,-73.35,-78.90,32.77,134.24,
06/01/2021,01:09:10.41,250.00,-944.82,409.18,19.09,-22.74,-68.66,-169.20,-73.80,-79.20,32.82,134.24,
06/01/2021,01:09:10.42,282.71,-957.52,372.07,22.74,-24.51,-76.95,-169.20,-73.80,-79.20,32.77,134.24,
06/01/2021,01:09:10.43,300.29,-978.03,375.98,21.77,-24.82,-75.67,-169.95,-73.05,-78.90,32.77,134.24,
06/01/2021,01:09:10.43,312.99,-973.14,366.21,19.15,-27.93,-75.55,-169.95,-73.05,-78.90,32.92,134.24,
06/01/2021,01:09:10.45,275.39,-1006.35,389.16,21.40,-31.89,-82.32,-171.00,-72.30,-80.40,32.77,134.24,
06/01/2021,01:09:10.45,271.97,-1023.44,400.39,20.98,-30.43,-82.56,-171.00,-72.30,-80.40,32.73,134.24,
06/01/2021,01:09:10.45,274.90,-1019.53,407.23,21.22,-29.70,-85.79,-170.10,-72.00,-80.40,32.63,134.24,
06/01/2021,01:09:10.46,295.90,-1034.18,417.48,22.20,-30.00,-88.29,-170.10,-72.00,-80.25,32.97,134.24,
06/01/2021,01:09:10.46,293.95,-1048.34,410.16,22.50,-31.22,-88.78,-170.10,-72.00,-80.25,32.82,134.24,
06/01/2021,01:09:10.48,361.82,-1071.78,399.41,24.21,-37.38,-94.27,-171.15,-73.65,-80.55,32.82,134.24,
06/01/2021,01:09:10.48,367.19,-1075.68,423.34,25.61,-39.94,-97.56,-171.15,-73.65,-80.55,32.92,134.24,
06/01/2021,01:09:10.49,388.18,-1079.10,408.20,24.76,-44.88,-95.91,-171.15,-73.65,-80.55,32.73,134.24,
06/01/2021,01:09:10.49,396.48,-1082.03,384.77,24.82,-44.09,-98.72,-171.15,-73.65,-80.55,32.82,134.24,
06/01/2021,01:09:10.50,397.46,-1090.82,383.79,24.63,-49.57,-103.90,-172.50,-72.30,-78.90,32.73,134.24,
06/01/2021,01:09:10.51,417.48,-1097.66,379.39,28.23,-59.82,-109.57,-171.45,-71.10,-80.40,32.73,134.24,
06/01/2021,01:09:10.52,440.92,-1119.14,362.79,29.76,-64.70,-109.57,-172.80,-71.10,-78.15,32.82,134.24,
06/01/2021,01:09:10.52,462.40,-1148.44,344.73,28.35,-66.95,-111.71,-172.80,-71.10,-78.15,32.77,134.24,
06/01/2021,01:09:10.53,476.56,-1195.80,338.38,28.66,-72.20,-113.17,-172.80,-69.90,-79.95,32.63,134.24,
06/01/2021,01:09:10.53,477.05,-1254.39,319.34,26.95,-77.20,-116.28,-172.80,-69.90,-79.95,32.73,134.24,
06/01/2021,01:09:10.55,308.11,-1451.66,389.16,20.98,-84.02,-117.62,-173.40,-70.95,-79.50,32.77,134.24,
06/01/2021,01:09:10.55,252.93,-1476.07,420.90,17.99,-85.30,-117.13,-173.40,-70.95,-79.50,32.44,134.24,
06/01/2021,01:09:10.56,230.96,-1475.10,413.09,16.40,-83.05,-115.06,-172.35,-71.25,-80.85,32.73,134.24,
06/01/2021,01:09:10.56,248.05,-1456.54,405.76,14.94,-83.23,-114.33,-172.35,-71.25,-80.85,32.92,134.24,
06/01/2021,01:09:10.56,310.06,-1451.66,387.21,16.28,-85.79,-113.84,-172.35,-71.25,-80.85,32.92,134.24,
06/01/2021,01:09:10.58,285.16,-1510.74,411.13,22.56,-111.46,-114.51,-174.00,-70.65,-80.40,32.53,134.24,
06/01/2021,01:09:10.58,200.20,-1585.94,434.08,23.35,-120.00,-110.67,-174.00,-70.65,-80.40,32.73,134.24,
06/01/2021,01:09:10.59,125.00,-1597.17,472.66,31.40,-130.49,-114.51,-174.00,-70.65,-80.40,32.53,134.24,
06/01/2021,01:09:10.59,105.47,-1634.77,521.48,35.00,-135.67,-118.60,-174.00,-70.65,-80.40,32.73,134.24,
06/01/2021,01:09:10.60,55.66,-1642.09,542.48,40.00,-130.91,-126.52,-173.85,-70.50,-82.35,32.73,134.24,
06/01/2021,01:09:10.61,-152.83,-1601.56,547.36,51.16,-114.88,-152.99,-172.35,-68.55,-80.55,32.92,134.24,
06/01/2021,01:09:10.62,-52.73,-1642.09,515.62,54.27,-103.78,-161.65,-173.40,-69.30,-80.55,32.77,134.24,
06/01/2021,01:09:10.62,-63.48,-1658.69,538.09,52.87,-92.80,-171.95,-173.40,-69.30,-80.55,32.92,134.24,
06/01/2021,01:09:10.63,6.84,-1633.79,593.75,55.55,-77.56,-181.34,-173.85,-67.05,-81.30,32.44,134.24,
06/01/2021,01:09:10.64,286.62,-1685.55,615.72,42.38,-24.51,-222.07,-173.85,-67.05,-81.30,32.77,134.24,
06/01/2021,01:09:10.65,250.49,-1689.94,621.09,34.94,-29.02,-222.93,-177.45,-66.60,-80.25,32.92,134.24,
06/01/2021,01:09:10.65,187.99,-1673.83,624.51,32.32,-39.88,-224.45,-177.45,-66.60,-80.25,32.58,134.24,
06/01/2021,01:09:10.66,136.23,-1601.07,637.70,32.26,-52.99,-216.59,-177.45,-66.60,-80.25,32.92,134.24,
06/01/2021,01:09:10.66,115.72,-1531.74,588.38,32.99,-61.10,-203.90,-177.45,-66.60,-80.25,32.92,134.24,
06/01/2021,01:09:10.68,-225.10,-1200.68,457.03,28.78,-73.41,-160.06,-177.15,-64.35,-79.80,32.73,134.24,
06/01/2021,01:09:10.68,-354.00,-1086.91,441.41,26.16,-76.10,-142.26,-177.15,-64.35,-79.80,32.92,134.24,
06/01/2021,01:09:10.69,-478.03,-970.21,473.14,31.71,-72.74,-117.80,-177.15,-64.35,-79.80,32.63,134.24,
06/01/2021,01:09:10.69,-528.81,-822.75,510.74,36.89,-69.09,-99.09,-176.55,-63.30,-81.45,32.73,134.24,
06/01/2021,01:09:10.70,-430.66,-607.42,482.42,42.13,-63.35,-82.32,-176.55,-63.30,-81.45,32.73,134.24,
06/01/2021,01:09:10.71,44.43,-166.99,205.08,21.46,-31.34,-67.87,-176.70,-63.60,-81.30,32.82,134.24,
06/01/2021,01:09:10.71,152.34,-174.32,373.54,32.99,-8.41,-55.00,-176.70,-63.60,-81.30,32.73,134.24,
06/01/2021,01:09:10.72,146.97,-248.54,534.67,40.00,1.89,-43.29,-178.05,-62.25,-80.70,32.73,134.24,
06/01/2021,01:09:10.72,33.69,-322.75,541.50,38.05,-16.28,-33.11,-178.05,-62.25,-80.70,33.06,134.24,
06/01/2021,01:09:10.73,-75.68,-343.75,420.90,31.89,-48.72,-13.17,-178.20,-60.90,-80.85,33.06,134.24,
06/01/2021,01:09:10.74,-396.48,-412.11,139.16,10.30,-89.15,67.01,-178.20,-60.45,-79.80,32.97,134.24,
06/01/2021,01:09:10.75,-500.49,-391.60,79.10,8.48,-79.88,87.20,-177.30,-61.05,-81.45,32.92,134.24,
06/01/2021,01:09:10.75,-583.01,-356.93,53.22,8.72,-67.74,103.29,-177.30,-61.05,-81.45,32.73,134.24,
06/01/2021,01:09:10.76,-591.31,-288.57,54.69,9.70,-51.10,111.22,-177.30,-61.05,-81.45,32.82,134.24,
06/01/2021,01:09:10.76,-552.25,-246.09,45.90,7.99,-29.76,115.30,-177.30,-61.05,-81.45,32.92,134.24,
06/01/2021,01:09:10.78,-381.84,-224.61,145.02,-2.68,49.02,129.82,-178.20,-60.90,-80.55,32.73,134.24,
06/01/2021,01:09:10.78,-318.36,-264.65,222.17,-3.96,67.26,139.88,-178.20,-60.90,-80.55,32.73,134.24,
06/01/2021,01:09:10.79,-294.43,-292.97,294.43,-5.67,74.33,154.76,-178.20,-60.90,-80.55,32.77,134.24,
06/01/2021,01:09:10.79,-251.46,-354.98,312.50,-8.48,78.17,174.21,-176.55,-61.35,-79.20,32.58,134.24,
06/01/2021,01:09:10.80,-209.96,-395.02,322.27,-14.15,74.63,192.99,-176.55,-61.35,-79.20,32.97,134.24,
06/01/2021,01:09:10.81,-83.98,-503.91,281.74,-18.48,64.76,234.27,-177.30,-62.25,-80.70,32.73,134.24,
06/01/2021,01:09:10.81,-48.83,-533.20,271.97,-17.50,61.95,247.38,-177.30,-62.25,-80.70,32.82,134.24,
06/01/2021,01:09:10.82,-25.88,-566.89,260.74,-18.54,61.52,254.82,-176.55,-62.25,-79.95,33.06,134.24,
06/01/2021,01:09:10.82,13.67,-611.33,275.39,-22.74,61.46,264.76,-176.55,-62.25,-79.95,32.73,134.24,
06/01/2021,01:09:10.83,46.39,-684.57,270.51,-22.26,61.28,274.51,-176.25,-62.25,-79.20,33.11,134.24,
06/01/2021,01:09:10.83,86.43,-731.45,277.34,-24.76,58.05,285.55,-176.25,-62.25,-79.20,32.73,134.24,
06/01/2021,01:09:10.85,327.15,-917.97,332.52,-30.91,37.07,308.17,-175.50,-66.00,-77.85,32.58,134.24,
06/01/2021,01:09:10.85,385.25,-963.87,357.42,-31.46,27.44,317.44,-175.50,-66.00,-77.85,32.77,134.24,
06/01/2021,01:09:10.86,429.20,-1015.62,366.21,-27.87,20.98,321.95,-175.50,-66.00,-77.85,32.77,134.24,
06/01/2021,01:09:10.86,456.54,-1040.04,380.86,-29.27,16.34,324.94,-175.50,-66.00,-77.85,32.73,134.24,
06/01/2021,01:09:10.87,488.28,-1073.73,376.95,-26.28,16.04,328.54,-173.40,-67.05,-78.30,32.58,134.24,
06/01/2021,01:09:10.88,412.60,-1147.95,358.40,-21.59,14.94,336.40,-173.40,-67.05,-78.30,32.82,134.24,
06/01/2021,01:09:10.92,291.99,-1545.41,371.58,-26.34,86.95,337.07,-168.90,-70.50,-77.25,32.77,134.24,
06/01/2021,01:09:10.93,323.73,-1587.89,386.72,-35.12,126.40,328.96,-168.30,-71.25,-77.55,32.58,134.24,
06/01/2021,01:09:10.93,346.19,-1617.19,398.93,-39.82,142.26,325.79,-168.30,-71.25,-77.55,32.73,134.24,
06/01/2021,01:09:10.95,485.84,-1771.00,454.59,-56.28,172.20,314.33,-163.05,-72.00,-77.55,32.58,134.24,
06/01/2021,01:09:10.95,557.13,-1804.69,460.45,-59.88,177.56,308.17,-163.05,-72.00,-77.55,32.82,134.24,
06/01/2021,01:09:10.96,605.47,-1822.27,479.49,-64.27,175.73,308.23,-159.60,-71.40,-77.85,32.58,134.24,
06/01/2021,01:09:10.96,658.20,-1823.24,484.38,-64.27,176.89,303.84,-159.60,-71.40,-77.85,32.92,134.24,
06/01/2021,01:09:10.97,709.47,-1795.90,518.07,-71.28,169.63,298.72,-160.50,-70.05,-78.75,32.92,134.24,
06/01/2021,01:09:11.00,1184.08,-1443.36,890.14,-64.70,102.38,244.15,-155.40,-71.40,-80.40,32.77,134.24,
06/01/2021,01:09:11.00,1191.89,-1378.42,940.92,-61.40,88.41,236.65,-155.40,-71.40,-80.40,32.73,134.24,
06/01/2021,01:09:11.01,1215.82,-1323.24,935.55,-52.13,73.41,230.43,-153.75,-69.75,-80.40,32.58,134.24,
06/01/2021,01:09:11.01,1308.59,-1295.90,928.22,-48.48,55.67,218.54,-153.75,-69.75,-79.50,32.73,134.24,
06/01/2021,01:09:11.02,1503.42,-1227.05,951.17,-39.88,35.67,211.22,-153.75,-69.75,-79.50,32.77,134.24,
06/01/2021,01:09:11.03,1770.51,-881.84,802.73,-4.21,-22.87,153.96,-154.35,-68.40,-78.90,32.58,134.24,
06/01/2021,01:09:11.04,1903.32,-873.05,706.05,4.45,-34.63,132.44,-154.35,-68.40,-78.90,32.82,134.24,
06/01/2021,01:09:11.04,1992.68,-834.47,639.16,13.84,-42.62,102.80,-152.85,-68.70,-79.20,32.73,134.24,
06/01/2021,01:09:11.05,1997.56,-796.88,576.66,27.32,-47.01,72.38,-152.85,-68.70,-79.20,32.92,134.24,
06/01/2021,01:09:11.05,1941.41,-755.37,543.95,31.46,-47.93,40.67,-152.85,-68.70,-79.20,32.63,134.24,
06/01/2021,01:09:11.07,1625.98,-716.80,420.41,49.33,-28.90,-43.11,-152.10,-68.70,-79.20,32.82,134.24,
06/01/2021,01:09:11.07,1558.11,-731.93,381.84,52.99,-19.63,-66.34,-152.55,-69.90,-78.90,32.63,134.24,
06/01/2021,01:09:11.07,1476.07,-758.30,348.14,56.83,-8.35,-86.10,-152.55,-69.90,-78.90,32.73,134.24,
06/01/2021,01:09:11.08,1318.85,-802.25,195.31,54.09,2.62,-102.80,-149.70,-68.55,-78.00,32.73,134.24,
06/01/2021,01:09:11.08,1113.28,-944.34,-38.09,50.30,7.20,-115.61,-149.70,-68.55,-78.00,32.63,134.24,
06/01/2021,01:09:11.10,-725.10,-1923.34,-1439.45,-24.09,32.99,-129.09,-150.90,-70.95,-79.05,32.77,134.24,
06/01/2021,01:09:11.10,-2028.81,-2365.23,-1311.52,-23.11,0.30,-98.41,-150.90,-70.95,-79.05,32.77,134.24,
06/01/2021,01:09:11.11,-2831.05,-2714.84,-997.56,15.30,-10.06,-71.04,-153.45,-69.75,-77.25,32.73,134.24,
06/01/2021,01:09:11.11,-2906.74,-2826.17,-883.30,33.11,39.15,-70.00,-153.45,-69.75,-77.25,32.73,134.24,
06/01/2021,01:09:11.12,-2054.69,-2401.86,-467.77,26.16,125.24,-96.04,-151.95,-70.95,-79.05,32.73,134.24,
06/01/2021,01:09:11.13,2355.47,-1576.17,422.36,1.28,304.82,-183.96,-154.05,-70.65,-78.15,32.58,134.24,
06/01/2021,01:09:11.14,2875.98,-1769.53,790.53,-11.65,296.16,-234.21,-155.40,-69.90,-77.85,32.92,134.24,
06/01/2021,01:09:11.14,1945.80,-1436.52,1320.80,19.15,194.88,-242.68,-155.40,-69.90,-77.85,32.92,134.24,
06/01/2021,01:09:11.15,1004.39,-971.68,1332.03,75.55,65.12,-202.50,-155.40,-69.90,-77.85,32.92,134.24,
06/01/2021,01:09:11.15,600.10,-762.21,964.84,116.28,-8.17,-157.87,-155.40,-69.90,-77.85,32.92,134.24,
06/01/2021,01:09:11.17,-721.19,-825.68,476.07,89.21,-5.79,-161.59,-157.65,-70.35,-79.20,32.73,134.24,
06/01/2021,01:09:11.17,-764.16,-667.48,415.04,76.95,18.17,-165.30,-160.65,-69.60,-76.35,32.58,134.24,
06/01/2021,01:09:11.18,-429.20,-561.52,458.01,60.67,57.32,-160.06,-160.65,-69.60,-76.35,32.82,134.24,
06/01/2021,01:09:11.18,-62.01,-599.61,716.80,51.40,78.90,-157.20,-158.40,-69.90,-79.65,32.73,134.24,
06/01/2021,01:09:11.18,234.38,-647.95,932.13,47.38,72.20,-153.05,-158.40,-69.90,-79.65,33.06,134.24,
06/01/2021,01:09:11.20,812.50,-853.03,421.39,40.30,-34.76,-116.04,-161.25,-70.50,-76.50,32.73,134.24,
06/01/2021,01:09:11.20,872.07,-955.57,253.42,39.63,-55.37,-105.37,-161.25,-70.50,-76.50,32.82,134.24,
06/01/2021,01:09:11.21,787.60,-1052.25,222.66,44.27,-63.60,-97.01,-161.25,-72.00,-76.95,32.73,134.24,
06/01/2021,01:09:11.21,578.12,-1114.75,278.81,48.60,-69.51,-88.29,-161.25,-72.00,-76.95,32.82,134.24,
06/01/2021,01:09:11.22,293.46,-1151.86,322.27,54.63,-68.35,-76.77,-161.25,-72.00,-76.95,32.53,134.24,
06/01/2021,01:09:11.23,-194.82,-1124.51,315.92,40.30,-19.94,-66.95,-163.95,-72.60,-77.10,32.63,134.24,
06/01/2021,01:09:11.24,-227.54,-1067.38,325.68,35.67,-0.12,-66.34,-162.75,-71.25,-76.20,32.73,134.24,
06/01/2021,01:09:11.24,-224.12,-965.82,278.81,32.62,16.40,-66.52,-162.75,-71.25,-76.20,32.63,134.24,
06/01/2021,01:09:11.25,-132.81,-908.20,257.32,26.10,32.87,-66.59,-162.75,-71.25,-76.20,32.77,134.24,
06/01/2021,01:09:11.25,-34.67,-875.98,256.35,22.26,40.85,-70.12,-162.90,-72.30,-76.05,32.58,134.24,
06/01/2021,01:09:11.27,301.76,-991.70,356.93,24.15,23.96,-63.96,-163.80,-71.70,-76.20,32.63,134.24,
06/01/2021,01:09:11.27,347.66,-1034.18,383.30,27.44,13.29,-62.38,-163.80,-71.70,-76.20,32.82,134.24,
06/01/2021,01:09:11.28,314.45,-1040.04,416.50,29.88,3.54,-54.51,-163.80,-71.70,-76.20,32.73,134.24,
06/01/2021,01:09:11.28,267.58,-982.42,432.62,28.84,-8.35,-49.27,-164.85,-70.95,-73.95,32.77,134.24,
06/01/2021,01:09:11.29,215.82,-910.16,434.57,33.29,-17.20,-44.45,-164.85,-70.95,-73.95,32.63,134.24,
06/01/2021,01:09:11.30,93.26,-801.27,459.47,29.27,-38.41,-29.33,-166.80,-72.00,-75.00,32.63,134.24,
06/01/2021,01:09:11.30,73.24,-832.03,457.52,26.59,-37.87,-24.94,-166.80,-72.00,-75.00,32.73,134.24,
06/01/2021,01:09:11.31,56.64,-875.00,437.99,26.10,-41.40,-25.30,-165.15,-69.60,-75.30,32.73,134.24,
06/01/2021,01:09:11.31,41.50,-918.95,430.66,23.35,-35.37,-26.46,-165.15,-69.60,-75.30,32.77,134.24,
06/01/2021,01:09:11.32,15.14,-965.82,395.51,21.46,-31.59,-25.30,-165.15,-69.60,-75.30,32.82,134.24,
06/01/2021,01:09:11.33,48.34,-975.59,364.26,15.79,-8.11,-26.95,-165.45,-71.10,-75.30,32.58,134.24,
06/01/2021,01:09:11.34,68.85,-947.27,364.26,15.43,-3.90,-27.68,-165.90,-72.60,-74.10,32.73,134.24,
06/01/2021,01:09:11.34,104.98,-941.41,360.35,16.04,-2.13,-30.43,-165.90,-72.60,-74.10,32.92,134.24,
06/01/2021,01:09:11.35,125.98,-938.48,374.02,17.32,0.24,-27.26,-165.90,-72.60,-74.10,32.73,134.24,
06/01/2021,01:09:11.35,149.90,-925.78,387.21,15.91,0.43,-26.65,-166.50,-70.65,-75.60,32.73,134.24,
06/01/2021,01:09:11.37,165.04,-893.07,398.93,16.65,-9.76,-28.66,-165.30,-71.25,-75.45,32.77,134.24,
06/01/2021,01:09:11.37,161.13,-896.00,402.34,16.71,-12.50,-26.22,-165.30,-71.25,-75.45,32.77,134.24,
06/01/2021,01:09:11.38,166.99,-895.02,403.32,19.15,-15.37,-22.07,-165.30,-71.25,-75.45,32.58,134.24,
06/01/2021,01:09:11.38,173.83,-894.04,401.37,18.96,-19.82,-22.07,-164.85,-70.95,-75.00,32.77,134.24,
06/01/2021,01:09:11.39,169.92,-894.53,412.11,19.39,-23.84,-20.43,-164.85,-70.95,-75.00,32.39,134.24,
06/01/2021,01:09:11.45,167.97,-941.89,394.53,15.79,-15.06,-35.79,-167.85,-71.70,-72.15,33.06,134.24,
06/01/2021,01:09:11.46,157.71,-944.34,408.69,19.09,-14.70,-32.32,-166.80,-71.25,-73.95,32.73,134.24,
06/01/2021,01:09:11.47,167.97,-958.50,415.53,18.05,-17.44,-34.21,-166.80,-71.25,-73.95,32.73,134.24,
06/01/2021,01:09:11.47,157.71,-953.61,411.13,18.48,-20.30,-35.85,-166.80,-70.95,-73.95,32.77,134.24,
06/01/2021,01:09:11.48,150.39,-960.94,391.60,20.79,-18.23,-37.01,-166.80,-70.95,-73.95,32.63,134.24,
06/01/2021,01:09:11.49,140.14,-947.27,403.32,21.65,-20.00,-38.17,-166.80,-71.25,-74.40,32.73,134.24,
06/01/2021,01:09:11.50,139.16,-951.66,405.27,22.13,-20.79,-38.48,-166.80,-71.25,-74.40,32.92,134.24,
06/01/2021,01:09:11.50,138.67,-957.03,402.34,22.13,-17.44,-43.35,-167.85,-71.25,-73.95,32.53,134.24,
06/01/2021,01:09:11.51,146.00,-936.04,391.11,21.59,-18.11,-42.87,-167.85,-71.25,-73.95,32.73,134.24,
06/01/2021,01:09:11.51,146.00,-943.36,386.72,23.72,-18.29,-42.62,-167.55,-71.25,-74.40,32.92,134.24,
06/01/2021,01:09:11.53,193.36,-934.08,401.37,27.99,-15.43,-47.32,-168.45,-72.30,-72.30,32.97,134.24,
06/01/2021,01:09:11.53,195.80,-952.64,412.11,27.20,-19.02,-52.38,-168.60,-71.25,-73.20,32.92,134.24,
06/01/2021,01:09:11.53,203.61,-939.94,400.88,29.02,-15.98,-51.52,-168.60,-71.25,-73.20,33.06,134.24,
06/01/2021,01:09:11.54,213.87,-950.68,409.67,30.00,-19.76,-49.94,-168.60,-71.25,-73.20,32.82,134.24,
06/01/2021,01:09:11.54,217.29,-943.85,423.34,30.55,-15.85,-52.74,-168.60,-71.25,-73.20,32.73,134.24,
06/01/2021,01:09:11.56,211.91,-979.49,431.15,32.26,-18.78,-57.13,-168.60,-71.70,-73.65,32.73,134.24,
06/01/2021,01:09:11.56,236.33,-983.40,439.94,35.49,-21.40,-56.16,-168.60,-71.70,-73.65,32.73,134.24,
06/01/2021,01:09:11.57,212.89,-971.68,439.94,32.99,-19.76,-59.88,-168.60,-71.70,-73.65,32.73,134.24,
06/01/2021,01:09:11.57,220.70,-956.05,441.89,33.96,-20.67,-60.00,-169.65,-71.70,-72.45,32.73,134.24,
06/01/2021,01:09:11.58,223.63,-954.59,445.31,33.78,-23.11,-59.76,-169.65,-71.70,-72.45,32.73,134.24,
06/01/2021,01:09:11.60,222.66,-983.40,470.70,37.56,-22.74,-68.29,-170.70,-72.60,-73.05,32.58,134.24,
06/01/2021,01:09:11.60,214.36,-992.19,468.26,37.93,-24.70,-72.13,-169.50,-71.40,-73.80,32.77,134.24,
06/01/2021,01:09:11.60,261.23,-1007.81,459.47,37.44,-23.78,-74.39,-169.50,-71.40,-73.80,32.77,134.24,
06/01/2021,01:09:11.61,289.55,-1034.18,437.50,35.24,-23.72,-76.59,-169.50,-71.40,-73.80,32.82,134.24,
06/01/2021,01:09:11.61,276.86,-1038.57,464.36,38.11,-23.84,-77.32,-169.50,-71.40,-73.80,32.63,134.24,
06/01/2021,01:09:11.63,270.51,-1074.22,477.54,43.29,-32.74,-82.13,-170.70,-71.10,-70.50,32.53,134.24,
06/01/2021,01:09:11.63,269.53,-1083.50,487.30,41.65,-35.67,-87.56,-170.70,-71.10,-70.50,32.73,134.24,
06/01/2021,01:09:11.64,260.25,-1069.34,486.33,44.21,-35.24,-90.55,-170.70,-71.10,-70.50,32.82,134.24,
06/01/2021,01:09:11.64,281.25,-1088.38,475.10,44.70,-39.70,-94.94,-170.10,-71.70,-72.45,32.92,134.24,
06/01/2021,01:09:11.65,271.97,-1100.10,500.00,47.62,-40.43,-94.45,-170.10,-71.70,-72.45,32.58,134.24,
06/01/2021,01:09:11.66,282.23,-1140.14,516.11,53.96,-50.18,-104.57,-171.75,-71.10,-72.75,32.63,134.24,
06/01/2021,01:09:11.67,271.48,-1198.24,527.83,53.66,-52.68,-109.39,-171.75,-71.10,-72.75,32.73,134.24,
06/01/2021,01:09:11.67,276.86,-1241.70,528.81,55.24,-55.55,-112.50,-172.50,-69.60,-73.05,32.58,134.24,
06/01/2021,01:09:11.68,278.81,-1320.80,543.95,54.27,-57.44,-118.17,-172.50,-69.60,-73.05,32.92,134.24,
06/01/2021,01:09:11.68,251.46,-1385.25,602.05,55.30,-59.57,-119.09,-172.65,-68.55,-72.45,32.58,134.24,
06/01/2021,01:09:11.70,204.59,-1462.40,641.11,62.38,-61.10,-126.52,-172.80,-71.85,-71.55,32.77,134.24,
06/01/2021,01:09:11.70,219.73,-1467.77,635.74,68.05,-65.43,-125.49,-174.00,-68.70,-70.20,32.92,134.24,
06/01/2021,01:09:11.71,228.52,-1496.58,616.70,71.10,-78.96,-123.35,-174.00,-68.70,-70.20,32.73,134.24,
06/01/2021,01:09:11.71,220.21,-1541.99,633.30,74.88,-91.04,-120.73,-174.00,-68.70,-70.20,32.77,134.24,
06/01/2021,01:09:11.71,195.80,-1588.38,641.11,79.82,-102.07,-113.35,-174.00,-68.70,-70.20,32.73,134.24,
06/01/2021,01:09:11.73,121.09,-1713.38,569.82,94.51,-142.68,-106.83,-174.90,-69.30,-71.70,32.73,134.24,
06/01/2021,01:09:11.73,42.97,-1698.24,551.27,98.60,-157.62,-106.04,-174.90,-69.30,-71.70,32.58,134.24,
06/01/2021,01:09:11.74,-18.55,-1680.18,541.50,102.74,-173.29,-99.51,-174.90,-69.30,-71.70,32.73,134.24,
06/01/2021,01:09:11.74,71.29,-1698.73,523.93,108.84,-178.05,-101.46,-175.50,-69.60,-70.20,32.73,134.24,
06/01/2021,01:09:11.75,243.16,-1757.81,565.92,113.11,-180.79,-105.61,-175.50,-69.60,-70.20,32.73,134.24,
06/01/2021,01:09:11.76,185.06,-1694.82,709.47,119.21,-177.13,-126.65,-175.50,-69.60,-72.75,32.58,134.24,
06/01/2021,01:09:11.77,146.97,-1616.21,782.71,121.40,-180.43,-122.62,-175.50,-69.60,-72.75,32.92,134.24,
06/01/2021,01:09:11.77,96.68,-1544.43,767.58,122.44,-174.45,-123.84,-175.05,-68.70,-70.50,32.39,134.24,
06/01/2021,01:09:11.78,91.31,-1500.00,743.16,119.15,-171.04,-124.27,-175.05,-68.70,-70.50,32.73,134.24,
06/01/2021,01:09:11.78,93.75,-1429.69,690.92,119.88,-172.07,-120.85,-175.05,-68.70,-70.50,32.73,134.24,
06/01/2021,01:09:11.80,279.30,-1252.93,479.49,99.21,-201.46,-107.56,-174.75,-69.15,-71.25,32.92,134.24,
06/01/2021,01:09:11.80,374.02,-1197.27,478.52,94.76,-214.02,-104.70,-176.70,-68.55,-69.90,32.39,134.24,
06/01/2021,01:09:11.81,325.68,-1129.39,482.91,95.73,-222.07,-96.22,-176.70,-68.55,-69.90,32.97,134.24,
06/01/2021,01:09:11.81,206.05,-1036.62,460.94,95.73,-233.54,-88.78,-175.50,-68.40,-72.30,32.73,134.24,
06/01/2021,01:09:11.82,15.14,-917.97,437.01,95.85,-247.87,-73.35,-175.50,-68.40,-72.30,32.82,134.24,
06/01/2021,01:09:11.83,-166.02,-416.02,200.68,114.27,-235.49,-13.78,-174.90,-67.80,-73.65,32.58,134.24,
06/01/2021,01:09:11.84,-60.06,-267.58,99.12,112.07,-213.41,-6.71,-174.90,-67.80,-73.65,32.58,134.24,
06/01/2021,01:09:11.84,-78.12,-202.64,-9.77,106.89,-188.41,-3.41,-174.30,-68.40,-72.30,32.63,134.24,
06/01/2021,01:09:11.84,-191.89,-214.36,-33.69,101.34,-175.91,1.46,-174.30,-68.40,-72.30,32.92,134.24,
06/01/2021,01:09:11.85,-277.34,-201.17,72.75,100.37,-172.32,10.85,-174.15,-70.50,-72.45,32.58,134.24,
06/01/2021,01:09:11.87,-367.19,-333.50,-282.23,90.30,-143.96,69.82,-173.25,-69.15,-70.20,32.77,134.24,
06/01/2021,01:09:11.87,-302.73,-363.28,-352.54,86.77,-112.26,82.20,-173.25,-69.15,-70.20,32.82,134.24,
06/01/2021,01:09:11.87,-323.73,-390.62,-358.40,82.87,-74.88,90.55,-174.15,-69.75,-73.65,32.58,134.24,
06/01/2021,01:09:11.88,-466.80,-437.01,-371.09,77.68,-42.50,100.37,-174.15,-69.75,-73.65,32.63,134.24,
06/01/2021,01:09:11.88,-590.33,-473.14,-395.02,70.61,-21.40,114.94,-174.15,-69.75,-73.65,32.77,134.24,
06/01/2021,01:09:11.90,-413.09,-421.88,-297.85,58.66,56.22,146.16,-172.05,-69.60,-71.55,32.73,134.24,
06/01/2021,01:09:11.90,-318.85,-434.08,-302.25,52.87,86.28,147.99,-173.10,-69.75,-69.60,32.77,134.24,
06/01/2021,01:09:11.96,390.14,-846.19,-223.14,-8.54,54.70,271.28,-171.45,-72.30,-68.25,32.82,134.24,
06/01/2021,01:09:11.97,560.06,-916.02,-250.00,-24.88,0.49,298.23,-166.20,-74.25,-67.50,32.92,134.24,
06/01/2021,01:09:11.97,601.56,-954.59,-262.21,-26.40,-23.48,304.21,-166.20,-74.25,-67.50,32.82,134.24,
06/01/2021,01:09:11.99,563.96,-1071.78,-272.95,-32.87,-67.50,318.29,-163.20,-74.55,-69.75,32.92,134.24,
06/01/2021,01:09:11.99,530.27,-1112.79,-271.97,-35.12,-76.16,320.61,-162.90,-75.30,-69.45,32.77,134.24,
06/01/2021,01:09:12.00,500.49,-1142.58,-258.79,-38.29,-79.27,325.00,-162.90,-75.30,-69.45,32.73,134.24,
06/01/2021,01:09:12.00,473.14,-1146.97,-246.58,-42.50,-81.89,330.98,-162.90,-75.30,-69.45,32.73,134.24,
06/01/2021,01:09:12.01,469.73,-1163.09,-179.69,-46.22,-77.50,330.73,-162.90,-75.30,-69.45,32.73,134.24,
06/01/2021,01:09:12.02,350.10,-1240.23,-68.36,-59.94,-69.51,332.26,-157.35,-74.25,-69.75,32.82,134.24,
06/01/2021,01:09:12.03,295.90,-1272.95,-9.28,-61.95,-62.56,334.51,-157.35,-74.25,-69.75,32.82,134.24,
06/01/2021,01:09:12.03,256.84,-1324.71,29.79,-65.55,-53.96,333.90,-154.05,-73.80,-69.75,32.82,134.24,
06/01/2021,01:09:12.04,255.37,-1406.25,82.52,-71.40,-45.55,336.46,-154.05,-73.80,-69.75,32.63,134.24,
06/01/2021,01:09:12.05,371.58,-1514.65,225.59,-77.01,-30.73,344.70,-151.95,-72.45,-72.45,32.73,134.24,
06/01/2021,01:09:12.06,439.94,-1519.04,230.96,-77.62,-31.77,349.02,-151.95,-72.45,-72.45,32.73,134.24,
06/01/2021,01:09:12.06,516.11,-1533.69,250.00,-77.38,-27.26,349.70,-148.20,-71.70,-72.90,32.77,134.24,
06/01/2021,01:09:12.07,614.26,-1576.17,262.70,-78.11,-30.18,347.44,-148.20,-71.70,-72.90,32.77,134.24,
06/01/2021,01:09:12.07,672.36,-1594.73,290.53,-77.93,-34.94,347.13,-145.65,-69.30,-72.45,32.73,134.24,
06/01/2021,01:09:12.09,847.17,-1686.04,263.67,-74.09,-49.88,326.22,-144.00,-69.60,-72.00,32.77,134.24,
06/01/2021,01:09:12.09,938.48,-1682.13,253.42,-75.79,-58.54,320.43,-143.40,-68.55,-72.90,32.77,134.24,
06/01/2021,01:09:12.09,1006.35,-1676.27,285.16,-77.68,-66.46,309.57,-143.40,-68.55,-72.90,32.73,134.24,
06/01/2021,01:09:12.10,1044.92,-1612.79,329.59,-77.07,-80.85,300.55,-143.40,-68.55,-72.90,32.77,134.24,
06/01/2021,01:09:12.10,1063.48,-1550.29,427.25,-72.68,-90.12,293.96,-143.40,-68.55,-72.90,32.82,134.24,
06/01/2021,01:09:12.12,1009.77,-1270.51,710.94,-53.29,-143.66,272.01,-138.45,-67.20,-74.10,32.97,134.24,
06/01/2021,01:09:12.12,990.72,-1215.33,729.00,-42.44,-153.48,266.52,-138.45,-67.20,-74.10,33.06,134.24,
06/01/2021,01:09:12.13,1001.46,-1170.41,723.63,-35.67,-172.38,258.54,-138.45,-67.20,-74.10,32.73,134.24,
06/01/2021,01:09:12.13,1059.57,-1157.71,732.91,-29.33,-184.57,246.28,-135.60,-63.90,-72.90,32.77,134.24,
06/01/2021,01:09:12.14,1109.86,-1121.09,731.45,-18.72,-192.50,233.05,-135.60,-63.90,-72.90,32.73,134.24,
06/01/2021,01:09:12.15,1114.26,-1075.68,454.59,-2.20,-225.61,192.99,-134.70,-63.00,-70.50,32.92,134.24,
06/01/2021,01:09:12.16,1127.93,-1067.87,383.30,0.18,-226.16,180.98,-134.70,-63.00,-70.50,32.82,134.24,
06/01/2021,01:09:12.16,1094.73,-1041.99,310.06,4.33,-223.84,160.06,-131.25,-62.40,-71.10,32.58,134.24,
06/01/2021,01:09:12.17,1050.29,-988.28,291.50,9.21,-213.66,141.46,-131.25,-62.40,-71.10,32.97,134.24,
06/01/2021,01:09:12.17,1005.86,-934.08,244.14,11.71,-194.15,118.29,-131.25,-62.40,-71.10,32.92,134.24,
06/01/2021,01:09:12.19,1130.37,-870.61,264.65,16.65,-106.65,19.02,-129.30,-59.25,-66.30,32.58,134.24,
06/01/2021,01:09:12.20,1139.65,-845.70,269.53,17.93,-88.96,-2.07,-129.30,-59.25,-66.30,32.92,134.24,
06/01/2021,01:09:12.20,1147.46,-833.98,307.62,20.98,-73.41,-24.15,-129.30,-59.25,-66.30,32.73,134.24,
06/01/2021,01:09:12.20,1105.96,-828.12,304.69,20.37,-59.33,-42.87,-129.15,-59.10,-68.25,32.97,134.24,
06/01/2021,01:09:12.21,1020.02,-853.03,264.65,23.41,-51.16,-56.34,-129.15,-59.10,-68.25,32.82,134.24,
06/01/2021,01:09:12.22,712.89,-1093.26,-222.17,8.90,2.99,-108.48,-128.55,-58.20,-66.30,32.97,134.24,
06/01/2021,01:09:12.23,276.86,-1322.27,-433.59,-3.84,11.22,-113.60,-128.55,-58.20,-66.30,32.73,134.24,
06/01/2021,01:09:12.23,-760.74,-1586.91,-299.32,-12.26,6.65,-100.30,-130.35,-61.05,-66.90,32.73,134.24,
06/01/2021,01:09:12.24,-1979.00,-1874.51,-129.88,0.12,-24.27,-62.93,-130.35,-61.05,-66.90,32.73,134.24,
06/01/2021,01:09:12.24,-2875.98,-2216.80,-269.04,18.90,-59.21,-26.04,-130.95,-59.10,-67.20,32.82,134.24,
06/01/2021,01:09:12.26,-840.82,-1392.09,-416.02,-13.48,166.77,-75.30,-130.50,-61.65,-64.80,32.73,134.24,
06/01/2021,01:09:12.26,232.91,-1143.07,3.42,-15.12,239.27,-97.80,-131.70,-61.05,-66.15,32.63,134.24,
06/01/2021,01:09:12.27,1241.70,-1195.80,416.50,-18.78,273.72,-122.74,-131.70,-61.05,-66.15,32.73,134.24,
06/01/2021,01:09:12.27,1902.34,-1449.71,751.95,-24.15,267.44,-164.57,-131.70,-61.05,-66.15,32.77,134.24,
06/01/2021,01:09:12.28,1660.64,-1506.84,1013.67,-10.85,212.20,-181.10,-131.70,-61.05,-66.15,32.53,134.24,
06/01/2021,01:09:12.29,28.32,-903.32,451.66,53.84,14.63,-102.07,-132.90,-64.05,-68.25,32.92,134.24,
06/01/2021,01:09:12.30,-216.31,-832.03,321.78,50.00,23.05,-101.89,-132.90,-64.05,-68.25,32.58,134.24,
06/01/2021,01:09:12.30,-421.88,-742.68,335.94,43.23,47.26,-109.82,-132.90,-64.05,-68.25,32.73,134.24,
06/01/2021,01:09:12.31,-541.50,-652.83,382.32,33.84,70.49,-118.60,-132.90,-64.95,-68.25,32.73,134.24,
06/01/2021,01:09:12.31,-492.68,-704.10,431.15,22.32,89.63,-117.01,-132.90,-64.95,-68.25,32.73,134.24,
06/01/2021,01:09:12.33,479.00,-939.45,609.86,4.88,82.80,-106.77,-135.90,-65.70,-69.75,32.73,134.24,
06/01/2021,01:09:12.33,636.72,-931.64,622.07,10.24,52.32,-102.44,-135.90,-65.70,-69.75,32.77,134.24,
06/01/2021,01:09:12.33,697.75,-901.86,616.70,22.93,26.28,-96.40,-136.35,-65.85,-70.65,32.63,134.24,
06/01/2021,01:09:12.34,640.62,-887.70,632.32,29.94,-2.13,-86.28,-136.35,-65.85,-70.65,32.82,134.24,
06/01/2021,01:09:12.34,531.25,-934.08,555.18,33.96,-30.55,-75.91,-136.35,-65.85,-70.65,32.77,134.24,
06/01/2021,01:09:12.36,168.46,-1016.60,386.23,32.20,-74.39,-53.96,-136.50,-66.90,-69.45,32.63,134.24,
06/01/2021,01:09:12.36,62.99,-997.07,394.53,36.46,-71.95,-49.15,-137.70,-68.40,-66.90,32.73,134.24,
06/01/2021,01:09:12.37,-49.80,-970.70,374.51,31.65,-67.38,-40.61,-137.70,-68.40,-66.90,32.73,134.24,
06/01/2021,01:09:12.37,-112.30,-951.66,359.86,26.95,-63.60,-36.83,-136.50,-67.20,-70.50,32.73,134.24,
06/01/2021,01:09:12.38,-114.75,-958.50,338.87,23.35,-53.41,-33.84,-136.50,-67.20,-70.50,32.77,134.24,
06/01/2021,01:09:12.39,-151.86,-958.50,310.06,12.56,-21.04,-33.48,-138.30,-68.25,-68.10,32.77,134.24,
06/01/2021,01:09:12.40,-152.34,-971.68,283.69,11.59,-13.54,-33.11,-138.30,-68.25,-68.10,32.73,134.24,
06/01/2021,01:09:12.40,-136.72,-989.26,258.79,11.71,-5.55,-37.62,-136.50,-67.95,-67.50,32.73,134.24,
06/01/2021,01:09:12.41,-100.59,-1006.84,247.07,8.72,2.01,-40.73,-136.50,-67.95,-67.50,32.58,134.24,
06/01/2021,01:09:12.41,-51.76,-1013.18,260.25,9.63,10.85,-38.96,-136.80,-67.95,-67.50,32.73,134.24,
06/01/2021,01:09:12.50,-12.21,-954.10,315.92,13.78,-42.80,-21.04,-139.95,-70.35,-67.50,32.58,134.23,
06/01/2021,01:09:12.51,-41.99,-951.66,315.43,12.87,-26.89,-17.99,-138.45,-68.40,-66.15,32.73,134.23,
06/01/2021,01:09:12.52,-39.55,-954.59,322.27,9.45,-23.23,-19.82,-138.45,-68.40,-66.15,32.73,134.23,
06/01/2021,01:09:12.52,-26.37,-952.15,322.75,8.29,-20.06,-20.85,-138.45,-68.40,-66.15,32.77,134.23,
06/01/2021,01:09:12.52,-10.74,-961.43,342.29,9.09,-15.24,-21.04,-138.60,-69.00,-65.55,32.73,134.23,
06/01/2021,01:09:12.54,46.39,-960.94,379.39,8.54,-10.67,-26.52,-138.60,-68.25,-67.05,32.77,134.23,
06/01/2021,01:09:12.54,58.11,-947.27,406.25,10.43,-10.43,-24.33,-139.35,-69.30,-65.25,32.97,134.23,
06/01/2021,01:09:12.55,55.66,-937.01,416.02,7.38,-16.22,-25.67,-139.35,-69.30,-65.25,32.73,134.23,
06/01/2021,01:09:12.55,66.89,-932.62,423.34,7.01,-19.33,-22.44,-140.25,-67.95,-66.15,33.11,134.23,
06/01/2021,01:09:12.56,85.94,-935.06,420.90,8.35,-22.13,-21.95,-140.25,-67.95,-66.15,32.63,134.23,
06/01/2021,01:09:12.57,75.20,-926.27,398.93,6.04,-33.78,-24.33,-139.05,-69.75,-65.25,32.82,134.23,
06/01/2021,01:09:12.58,60.06,-939.94,383.30,10.12,-35.67,-19.09,-139.05,-69.75,-65.25,32.58,134.23,
06/01/2021,01:09:12.58,41.99,-939.45,382.81,13.60,-39.21,-19.27,-140.25,-69.15,-66.90,32.77,134.23,
06/01/2021,01:09:12.59,18.07,-945.31,366.21,10.85,-36.16,-20.98,-140.25,-69.15,-66.90,32.73,134.23,
06/01/2021,01:09:12.59,14.16,-952.15,346.68,9.51,-37.32,-22.62,-140.25,-69.15,-66.90,32.77,134.23,
06/01/2021,01:09:12.61,-4.39,-982.91,321.29,12.93,-21.89,-27.44,-139.35,-69.00,-65.55,32.73,134.23,
06/01/2021,01:09:12.61,8.30,-971.19,335.45,11.40,-18.11,-27.44,-139.35,-69.00,-65.55,32.92,134.23,
06/01/2021,01:09:12.62,23.93,-968.26,328.61,9.39,-17.32,-30.79,-139.35,-69.00,-65.55,32.63,134.23,
06/01/2021,01:09:12.62,38.09,-951.17,344.24,8.60,-10.06,-32.68,-139.35,-69.00,-65.55,32.73,134.23,
06/01/2021,01:09:12.62,44.43,-938.48,352.05,11.46,-5.79,-30.67,-139.05,-70.05,-65.55,32.63,134.23,
06/01/2021,01:09:12.64,78.12,-931.64,369.63,13.29,-12.32,-33.29,-142.35,-70.05,-64.50,32.58,134.23,
06/01/2021,01:09:12.64,88.87,-929.20,364.75,14.09,-12.26,-32.80,-142.35,-69.30,-63.75,32.82,134.23,
06/01/2021,01:09:12.65,76.66,-942.38,361.82,15.79,-13.41,-33.90,-142.35,-69.30,-63.75,32.73,134.23,
06/01/2021,01:09:12.65,79.10,-947.75,389.65,16.10,-12.68,-34.39,-140.25,-69.60,-64.95,32.77,134.23,
06/01/2021,01:09:12.66,53.71,-935.55,377.44,17.13,-19.15,-33.90,-140.25,-69.60,-64.95,32.77,134.23,
06/01/2021,01:09:12.67,61.52,-929.69,383.79,17.93,-13.84,-37.13,-141.90,-70.95,-64.05,32.44,134.23,
06/01/2021,01:09:12.68,81.05,-931.64,362.30,20.06,-15.00,-37.74,-141.90,-70.95,-64.05,32.73,134.23,
06/01/2021,01:09:12.68,67.38,-946.29,368.65,20.30,-16.52,-39.33,-141.90,-70.95,-64.05,32.73,134.23,
06/01/2021,01:09:12.69,55.66,-933.11,369.63,19.94,-14.70,-41.46,-141.90,-70.95,-64.05,32.73,134.23,
06/01/2021,01:09:12.69,72.27,-934.57,370.61,20.24,-13.66,-40.85,-141.90,-70.95,-64.05,32.73,134.23,
06/01/2021,01:09:12.71,100.10,-961.43,381.84,23.84,-10.30,-42.93,-142.20,-69.60,-64.35,32.92,134.23,
06/01/2021,01:09:12.71,116.21,-945.31,391.11,24.51,-8.54,-47.93,-142.20,-69.60,-64.35,32.92,134.23,
06/01/2021,01:09:12.72,121.58,-940.92,414.06,27.01,-6.10,-50.79,-142.80,-71.40,-64.35,32.92,134.23,
06/01/2021,01:09:12.72,148.44,-928.71,410.64,25.49,-8.90,-48.54,-142.80,-71.40,-64.35,32.73,134.23,
06/01/2021,01:09:12.72,171.88,-913.57,411.62,25.18,-9.82,-49.21,-141.00,-69.90,-63.60,32.92,134.24,
06/01/2021,01:09:12.74,133.30,-942.38,458.01,30.00,-16.16,-50.18,-141.00,-69.90,-63.60,32.82,134.23,
06/01/2021,01:09:12.74,109.38,-952.15,455.57,27.56,-15.61,-50.61,-143.85,-69.75,-62.25,32.82,134.23,
06/01/2021,01:09:12.75,115.23,-954.59,437.01,26.89,-13.17,-53.35,-143.85,-69.75,-62.25,32.92,134.24,
06/01/2021,01:09:12.75,112.79,-948.24,451.66,28.54,-14.09,-54.82,-142.80,-71.10,-63.60,32.73,134.24,
06/01/2021,01:09:12.76,119.14,-949.71,454.10,26.89,-13.41,-55.85,-142.80,-71.10,-63.60,32.73,134.24,
06/01/2021,01:09:12.77,193.85,-946.29,442.38,30.18,-15.98,-61.46,-142.65,-72.45,-63.00,32.82,134.23,
06/01/2021,01:09:12.78,211.91,-954.59,437.50,29.15,-20.49,-58.84,-142.65,-72.45,-63.00,32.92,134.24,
06/01/2021,01:09:12.78,229.00,-953.61,436.04,31.46,-24.02,-63.60,-142.65,-72.45,-63.00,32.77,134.24,
06/01/2021,01:09:12.79,216.31,-934.08,445.31,31.65,-26.59,-64.51,-142.65,-72.45,-63.00,32.73,134.24,
06/01/2021,01:09:12.79,230.47,-947.75,420.90,34.15,-30.49,-64.82,-142.65,-72.45,-63.00,32.97,134.24,
06/01/2021,01:09:12.81,211.43,-950.20,481.45,35.49,-43.11,-73.05,-145.50,-73.05,-62.10,32.63,134.23,
06/01/2021,01:09:12.82,206.05,-957.03,498.05,37.13,-46.59,-73.60,-145.50,-73.05,-62.10,32.92,134.23,
06/01/2021,01:09:12.82,225.10,-969.73,507.32,39.39,-50.12,-72.87,-145.50,-73.05,-62.10,32.73,134.24,
06/01/2021,01:09:12.83,230.47,-986.82,517.58,38.90,-52.13,-73.41,-145.50,-72.30,-62.85,32.92,134.24,
06/01/2021,01:09:12.83,225.10,-1000.49,559.57,41.04,-55.18,-76.83,-145.50,-72.30,-62.85,32.73,134.24,
06/01/2021,01:09:12.85,207.03,-1080.57,695.80,49.76,-68.90,-79.21,-147.00,-71.85,-61.05,32.77,134.24,
06/01/2021,01:09:12.85,181.15,-1103.03,744.14,55.37,-74.57,-80.37,-147.00,-71.85,-61.05,32.63,134.24,
06/01/2021,01:09:12.86,187.01,-1144.53,749.02,55.30,-81.77,-81.46,-147.45,-72.45,-61.20,32.92,134.24,
06/01/2021,01:09:12.86,175.78,-1191.89,700.68,56.28,-88.29,-82.99,-147.45,-72.45,-61.20,33.11,134.24,
06/01/2021,01:09:12.87,186.04,-1222.17,750.98,62.01,-95.18,-81.16,-147.90,-73.20,-59.70,32.73,134.24,
06/01/2021,01:09:12.88,300.78,-1457.03,500.98,72.13,-116.52,-86.77,-148.65,-73.95,-57.90,32.73,134.24,
06/01/2021,01:09:12.88,328.12,-1487.79,520.02,73.72,-120.67,-88.90,-149.10,-73.35,-58.80,32.58,134.24,
06/01/2021,01:09:12.89,375.98,-1484.38,566.89,81.95,-128.23,-92.68,-149.10,-73.35,-58.80,32.82,134.24,
06/01/2021,01:09:12.89,409.18,-1472.17,668.46,88.29,-133.23,-96.83,-147.45,-72.75,-60.45,32.82,134.24,
06/01/2021,01:09:12.90,342.77,-1520.51,714.84,92.80,-142.20,-94.21,-147.45,-72.75,-60.45,32.73,134.24,
06/01/2021,01:09:12.91,329.10,-1583.01,685.55,112.20,-180.73,-93.11,-150.60,-74.25,-58.50,32.92,134.24,
06/01/2021,01:09:12.92,300.78,-1603.03,742.68,118.05,-186.22,-92.68,-150.60,-74.25,-58.50,32.77,134.24,
06/01/2021,01:09:12.92,261.72,-1622.56,836.43,126.71,-200.79,-89.39,-151.20,-74.40,-57.15,32.73,134.24,
06/01/2021,01:09:12.93,140.62,-1586.43,879.39,130.55,-209.57,-84.39,-151.20,-74.40,-57.15,32.73,134.24,
06/01/2021,01:09:12.98,367.19,-965.33,683.11,166.95,-240.79,-36.89,-154.50,-74.40,-49.80,32.73,134.23,
06/01/2021,01:09:13.01,-143.07,-670.41,304.69,177.20,-313.78,25.61,-154.95,-72.00,-48.00,32.73,134.23,
06/01/2021,01:09:13.01,-230.96,-603.52,188.48,177.32,-315.55,34.82,-154.95,-72.00,-48.00,32.97,134.23,
06/01/2021,01:09:13.01,-314.45,-542.48,50.29,170.67,-326.83,44.94,-156.15,-70.35,-46.80,32.44,134.23,
06/01/2021,01:09:13.02,-331.05,-488.77,-89.36,165.30,-336.04,54.21,-156.15,-70.35,-46.80,32.77,134.23,
06/01/2021,01:09:13.02,-343.26,-462.89,-238.28,163.60,-330.55,65.67,-156.90,-69.90,-47.10,32.82,134.23,
06/01/2021,01:09:13.04,-320.80,-528.81,-554.20,152.44,-270.37,91.04,-157.35,-70.65,-43.80,32.73,134.23,
06/01/2021,01:09:13.04,-328.12,-578.61,-541.02,147.01,-244.27,100.18,-159.60,-69.60,-44.10,32.82,134.23,
06/01/2021,01:09:13.05,-325.20,-611.33,-552.73,142.38,-211.52,108.23,-159.60,-69.60,-44.10,32.82,134.23,
06/01/2021,01:09:13.05,-320.31,-625.49,-560.55,136.59,-170.73,109.57,-159.60,-69.60,-44.10,32.44,134.23,
06/01/2021,01:09:13.06,-331.54,-638.67,-531.74,130.49,-128.54,114.15,-159.60,-69.60,-44.10,32.73,134.23,
06/01/2021,01:09:13.07,-365.23,-510.74,-426.76,108.78,-9.94,120.37,-158.10,-66.90,-42.00,32.63,134.23,
06/01/2021,01:09:13.08,-372.07,-498.05,-433.59,103.66,15.79,123.84,-158.10,-66.90,-42.00,32.58,134.23,
06/01/2021,01:09:13.08,-332.52,-543.46,-419.43,95.24,40.73,137.13,-158.10,-66.90,-42.00,32.25,134.23,
06/01/2021,01:09:13.09,-252.93,-584.96,-399.90,86.71,57.01,145.61,-157.05,-67.05,-41.40,32.63,134.23,
06/01/2021,01:09:13.09,-153.81,-612.79,-383.30,78.41,72.07,154.15,-157.05,-67.05,-41.40,32.92,134.23,
06/01/2021,01:09:13.11,118.16,-729.49,-287.11,57.80,84.82,182.13,-156.60,-66.90,-40.95,32.77,134.23,
06/01/2021,01:09:13.11,178.71,-764.65,-264.16,50.49,77.56,191.40,-156.60,-66.90,-40.95,32.73,134.23,
06/01/2021,01:09:13.12,257.81,-800.78,-241.70,43.84,61.40,199.82,-155.40,-65.70,-41.25,32.63,134.23,
06/01/2021,01:09:13.12,306.64,-847.66,-263.18,36.40,47.93,209.88,-155.40,-65.70,-41.25,32.77,134.23,
06/01/2021,01:09:13.12,405.27,-879.88,-270.51,30.67,29.09,221.52,-155.40,-65.70,-41.25,32.73,134.23,
06/01/2021,01:09:13.14,666.99,-900.39,-296.88,12.62,-38.41,249.02,-154.05,-64.50,-39.75,32.77,134.23,
06/01/2021,01:09:13.14,677.25,-908.69,-290.04,9.63,-60.85,252.32,-151.35,-65.70,-40.50,32.77,134.23,
06/01/2021,01:09:13.15,672.36,-908.20,-276.37,7.01,-78.35,261.83,-151.35,-65.70,-40.50,32.58,134.23,
06/01/2021,01:09:13.15,653.81,-945.31,-288.09,8.66,-102.56,269.57,-151.35,-65.70,-40.50,32.82,134.23,
06/01/2021,01:09:13.16,626.46,-989.26,-314.45,4.70,-114.94,272.32,-151.50,-65.10,-41.10,32.73,134.23,
06/01/2021,01:09:13.17,528.32,-1098.63,-266.11,-4.21,-137.56,282.50,-150.60,-64.95,-42.30,32.92,134.23,
06/01/2021,01:09:13.18,511.72,-1131.35,-236.82,-8.90,-141.34,283.66,-150.60,-64.95,-42.30,32.73,134.23,
06/01/2021,01:09:13.18,491.21,-1125.00,-195.80,-12.01,-146.89,286.04,-150.60,-64.95,-42.30,32.92,134.23,
06/01/2021,01:09:13.19,463.87,-1141.11,-154.30,-12.20,-150.43,286.22,-148.20,-62.40,-40.65,32.58,134.23,
06/01/2021,01:09:13.19,433.59,-1138.67,-107.42,-14.82,-152.93,289.45,-148.20,-62.40,-40.65,32.73,134.23,
06/01/2021,01:09:13.21,308.59,-1206.05,18.55,-19.63,-159.15,293.29,-149.10,-63.30,-38.25,32.63,134.23,
06/01/2021,01:09:13.21,285.16,-1229.00,61.52,-18.29,-156.22,295.85,-149.10,-63.30,-38.25,32.77,134.23,
06/01/2021,01:09:13.22,280.27,-1265.14,82.03,-19.57,-152.32,296.95,-147.30,-63.00,-40.50,32.82,134.23,
06/01/2021,01:09:13.22,288.57,-1288.57,83.98,-20.43,-149.02,300.85,-147.30,-63.00,-40.50,32.77,134.23,
06/01/2021,01:09:13.23,330.08,-1310.55,109.86,-22.62,-141.52,302.01,-147.30,-63.00,-40.50,32.82,134.23,
06/01/2021,01:09:13.24,566.89,-1378.42,93.26,-25.79,-145.98,297.32,-147.00,-63.30,-40.20,32.77,134.23,
06/01/2021,01:09:13.24,671.88,-1404.79,86.43,-26.10,-153.11,296.77,-145.95,-60.45,-41.10,32.73,134.23,
06/01/2021,01:09:13.25,758.79,-1430.66,63.96,-28.23,-166.83,294.27,-145.95,-60.45,-41.10,32.73,134.23,
06/01/2021,01:09:13.25,819.34,-1432.13,74.22,-31.52,-181.46,286.04,-146.25,-63.00,-39.75,32.97,134.23,
06/01/2021,01:09:13.26,871.58,-1437.50,63.48,-32.32,-193.05,276.83,-146.25,-63.00,-39.75,32.73,134.23,
06/01/2021,01:09:13.27,859.86,-1353.03,109.86,-30.12,-231.95,264.45,-146.55,-62.25,-40.20,32.73,134.23,
06/01/2021,01:09:13.28,850.59,-1316.89,147.95,-29.39,-248.90,256.22,-146.55,-62.25,-40.20,32.53,134.23,
06/01/2021,01:09:13.28,803.71,-1266.60,208.98,-28.54,-261.52,253.48,-146.55,-62.25,-40.20,33.06,134.23,
06/01/2021,01:09:13.29,738.28,-1218.75,253.42,-24.45,-275.37,250.79,-145.20,-60.90,-39.60,32.63,134.23,
06/01/2021,01:09:13.29,673.83,-1167.97,303.71,-21.77,-288.54,246.65,-145.20,-60.90,-39.60,32.77,134.23,
06/01/2021,01:09:13.31,586.91,-1077.15,335.94,-11.04,-322.13,235.67,-145.50,-60.60,-37.95,32.82,134.23,
06/01/2021,01:09:13.31,552.25,-1061.04,312.50,-6.10,-325.43,228.54,-145.50,-60.60,-37.95,32.73,134.23,
06/01/2021,01:09:13.32,535.16,-1049.80,293.46,-4.51,-327.62,219.76,-144.90,-60.00,-39.30,32.44,134.23,
06/01/2021,01:09:13.32,546.39,-1052.25,227.54,0.73,-328.66,211.46,-144.90,-60.00,-39.30,32.77,134.23,
06/01/2021,01:09:13.34,627.44,-1047.36,27.34,4.39,-311.40,174.94,-146.25,-59.85,-37.95,32.73,134.23,
06/01/2021,01:09:13.34,654.79,-1041.02,-5.86,3.66,-299.33,161.89,-146.25,-59.85,-37.95,32.77,134.23,
06/01/2021,01:09:13.35,682.13,-1045.90,-48.83,0.79,-290.00,146.22,-146.25,-59.85,-37.95,32.82,134.23,
06/01/2021,01:09:13.35,686.52,-1029.79,-68.36,-0.49,-273.96,133.29,-146.25,-59.85,-37.95,32.58,134.23,
06/01/2021,01:09:13.36,695.31,-1020.02,-45.90,-1.89,-259.51,113.96,-145.65,-57.30,-38.55,32.77,134.24,
06/01/2021,01:09:13.37,703.12,-952.64,64.45,-0.79,-211.89,69.63,-148.05,-57.15,-37.20,33.06,134.23,
06/01/2021,01:09:13.37,700.68,-945.80,67.87,-2.38,-194.82,58.05,-148.95,-58.95,-37.05,32.63,134.23,
06/01/2021,01:09:13.38,691.41,-933.59,123.54,-2.13,-178.90,42.32,-148.95,-58.95,-37.05,32.97,134.24,
06/01/2021,01:09:13.38,670.41,-938.48,157.23,-3.90,-160.12,26.04,-147.30,-57.15,-37.20,32.73,134.24,
06/01/2021,01:09:13.39,675.29,-929.20,240.23,-2.26,-139.09,11.04,-147.30,-57.15,-37.20,32.92,134.24,
06/01/2021,01:09:13.41,660.16,-932.62,457.52,-4.02,-53.78,-46.89,-149.55,-58.65,-36.45,32.73,134.23,
06/01/2021,01:09:13.41,525.39,-951.66,663.57,-1.95,-36.40,-57.01,-149.55,-58.65,-36.45,32.58,134.23,
06/01/2021,01:09:13.42,112.30,-1032.23,966.80,2.68,-33.84,-57.99,-150.15,-57.75,-34.80,32.63,134.24,
06/01/2021,01:09:13.42,-448.24,-1152.34,1161.62,8.17,-54.76,-43.48,-150.15,-57.75,-34.80,32.73,134.24,
06/01/2021,01:09:13.43,-1054.20,-1322.75,1079.10,18.66,-86.65,-26.16,-149.10,-56.70,-36.90,32.77,134.24,
06/01/2021,01:09:13.49,271.00,-672.85,459.47,20.12,-29.21,-58.54,-150.15,-57.75,-37.05,32.97,134.23,
06/01/2021,01:09:13.50,48.34,-787.60,366.70,14.76,-31.89,-44.57,-150.15,-58.20,-37.05,32.82,134.23,
06/01/2021,01:09:13.51,56.64,-854.00,315.43,10.67,-23.60,-42.74,-150.90,-57.75,-36.30,33.06,134.23,
06/01/2021,01:09:13.51,79.10,-949.22,327.64,10.00,-17.20,-36.89,-150.90,-57.75,-36.30,32.63,134.23,
06/01/2021,01:09:13.52,82.52,-967.29,331.54,9.21,-6.04,-35.55,-150.90,-57.75,-36.30,32.58,134.23,
06/01/2021,01:09:13.53,76.17,-984.86,340.82,7.01,15.18,-34.21,-149.85,-57.60,-35.70,32.92,134.23,
06/01/2021,01:09:13.54,83.01,-962.40,355.96,8.90,17.93,-32.38,-150.15,-58.20,-35.55,32.82,134.23,
06/01/2021,01:09:13.54,88.38,-944.34,361.82,8.54,17.74,-33.48,-150.15,-58.20,-35.55,32.92,134.23,
06/01/2021,01:09:13.55,101.56,-909.67,359.86,8.78,11.95,-31.34,-150.60,-56.40,-37.20,32.92,134.23,
06/01/2021,01:09:13.55,103.03,-907.71,384.28,11.71,11.22,-29.94,-150.60,-56.40,-37.20,32.63,134.23,
06/01/2021,01:09:13.55,112.30,-899.90,408.20,11.95,5.49,-28.17,-149.55,-57.60,-36.90,32.73,134.23,
06/01/2021,01:09:13.57,92.29,-932.62,476.07,16.40,-17.56,-17.62,-149.55,-57.60,-36.90,32.73,134.23,
06/01/2021,01:09:13.57,93.75,-950.68,477.05,16.34,-21.10,-14.15,-149.55,-57.60,-36.90,32.73,134.23,
06/01/2021,01:09:13.58,54.20,-953.12,461.91,16.16,-28.54,-12.50,-149.85,-59.10,-36.90,32.92,134.23,
06/01/2021,01:09:13.58,57.13,-966.31,450.20,15.91,-30.67,-13.60,-149.85,-59.10,-36.90,32.73,134.23,
06/01/2021,01:09:13.59,42.97,-961.43,438.96,15.55,-34.15,-13.48,-150.30,-57.90,-37.65,32.82,134.23,
06/01/2021,01:09:13.60,12.21,-974.61,407.23,15.91,-37.01,-14.15,-149.70,-57.75,-37.05,32.92,134.23,
06/01/2021,01:09:13.61,-23.44,-969.24,388.67,16.22,-38.96,-17.38,-151.20,-58.95,-35.25,32.77,134.23,
06/01/2021,01:09:13.61,2.93,-973.14,388.67,18.35,-36.89,-18.41,-151.20,-58.95,-35.25,32.73,134.23,
06/01/2021,01:09:13.62,-17.58,-976.07,371.58,18.60,-29.09,-15.06,-151.20,-58.95,-35.25,32.73,134.23,
06/01/2021,01:09:13.62,-22.46,-982.91,376.46,19.57,-27.87,-15.49,-151.20,-58.95,-35.25,32.73,134.23,
06/01/2021,01:09:13.64,20.02,-950.68,409.67,15.06,-16.52,-17.01,-150.15,-57.30,-37.35,32.77,134.23,
06/01/2021,01:09:13.64,36.13,-958.98,416.02,14.21,-13.66,-17.50,-150.15,-57.30,-37.35,32.82,134.23,
06/01/2021,01:09:13.65,46.39,-945.31,429.69,14.82,-11.40,-16.10,-151.35,-57.90,-36.15,32.63,134.23,
06/01/2021,01:09:13.65,86.43,-965.33,425.78,13.66,-9.09,-15.00,-151.35,-57.90,-36.15,32.92,134.23,
06/01/2021,01:09:13.66,93.26,-948.73,433.59,13.48,-12.01,-13.23,-151.05,-57.15,-37.95,32.58,134.23,
06/01/2021,01:09:13.67,121.58,-937.99,448.24,7.80,-17.80,-7.93,-151.35,-55.65,-34.35,32.63,134.23,
06/01/2021,01:09:13.67,117.19,-953.12,447.75,6.46,-20.73,-3.90,-151.35,-55.65,-34.35,32.63,134.23,
06/01/2021,01:09:13.68,143.07,-936.04,456.05,5.55,-25.91,-3.05,-152.55,-56.70,-37.20,32.92,134.23,
06/01/2021,01:09:13.68,137.21,-935.06,444.82,8.84,-29.09,-1.34,-152.55,-56.70,-37.20,32.73,134.23,
06/01/2021,01:09:13.69,131.84,-929.20,432.13,6.65,-31.65,1.40,-152.55,-56.70,-37.20,32.92,134.23,
06/01/2021,01:09:13.70,131.35,-922.85,420.90,7.44,-45.00,7.68,-152.55,-57.90,-34.65,32.82,134.23,
06/01/2021,01:09:13.71,123.05,-920.41,424.32,9.15,-42.99,10.24,-153.75,-57.00,-35.25,32.77,134.23,
06/01/2021,01:09:13.71,83.98,-927.25,422.85,6.89,-46.16,11.71,-153.75,-57.00,-35.25,32.44,134.23,
06/01/2021,01:09:13.72,56.15,-934.08,400.39,8.05,-44.76,9.21,-151.80,-57.60,-36.15,32.58,134.23,
06/01/2021,01:09:13.72,23.44,-937.01,400.88,7.68,-44.15,12.20,-151.80,-57.60,-36.15,32.63,134.23,
06/01/2021,01:09:13.74,-25.39,-945.80,409.67,6.77,-33.54,6.59,-152.10,-56.70,-35.10,32.82,134.23,
06/01/2021,01:09:13.74,-17.58,-941.89,424.80,4.88,-26.59,6.16,-152.10,-56.70,-35.10,32.73,134.23,
06/01/2021,01:09:13.75,-5.86,-931.15,423.34,5.67,-27.99,5.67,-153.30,-56.40,-35.40,32.92,134.23,
06/01/2021,01:09:13.75,5.86,-928.22,429.69,5.55,-24.70,3.54,-153.30,-56.40,-35.40,32.92,134.23,
06/01/2021,01:09:13.75,16.11,-930.66,439.45,5.06,-22.20,1.77,-153.30,-56.40,-35.40,32.73,134.23,
06/01/2021,01:09:13.77,55.18,-890.14,435.55,7.01,-27.07,-1.16,-154.20,-57.30,-36.30,32.77,134.23,
06/01/2021,01:09:13.77,48.83,-889.16,420.90,7.13,-31.34,-4.15,-154.20,-57.30,-36.30,32.73,134.23,
06/01/2021,01:09:13.78,44.92,-895.51,419.43,8.23,-28.29,-0.79,-152.85,-56.70,-35.70,32.82,134.23,
06/01/2021,01:09:13.78,42.97,-908.69,419.43,9.27,-32.50,-2.01,-152.85,-56.70,-35.70,32.77,134.23,
06/01/2021,01:09:13.79,27.83,-925.29,401.37,9.45,-31.40,-2.26,-152.85,-56.70,-35.70,32.58,134.23,
06/01/2021,01:09:13.80,-8.79,-946.78,395.02,9.70,-25.91,-9.33,-153.30,-57.15,-35.10,32.63,134.23,
06/01/2021,01:09:13.81,-15.14,-964.36,402.34,7.80,-19.94,-10.91,-153.30,-57.15,-35.10,32.77,134.23,
06/01/2021,01:09:13.81,3.91,-937.50,393.55,8.05,-17.80,-11.46,-153.30,-57.15,-35.10,32.58,134.23,
06/01/2021,01:09:13.82,5.86,-948.73,386.72,7.32,-13.11,-14.88,-152.55,-57.60,-36.45,32.58,134.23,
06/01/2021,01:09:13.82,29.30,-942.87,387.21,8.29,-13.05,-15.67,-152.55,-57.60,-36.45,32.77,134.23,
06/01/2021,01:09:13.83,60.06,-926.76,384.28,10.49,-12.62,-14.82,-154.35,-56.40,-36.90,32.82,134.23,
06/01/2021,01:09:13.84,76.17,-926.76,420.41,12.26,-13.48,-18.54,-152.85,-56.70,-35.10,32.63,134.23,
06/01/2021,01:09:13.84,68.36,-943.85,420.90,15.91,-18.35,-22.56,-152.85,-56.70,-35.10,32.73,134.23,
06/01/2021,01:09:13.85,60.55,-932.62,404.79,16.16,-18.29,-24.21,-154.50,-55.05,-35.55,32.73,134.23,
06/01/2021,01:09:13.85,67.87,-942.87,417.97,17.20,-18.90,-20.85,-154.50,-55.05,-35.55,32.58,134.23,
06/01/2021,01:09:13.86,63.96,-944.82,427.73,18.29,-19.57,-23.60,-154.50,-55.05,-35.55,32.73,134.24,
06/01/2021,01:09:13.87,41.02,-936.52,414.55,22.01,-20.37,-30.43,-154.05,-57.60,-36.45,32.82,134.23,
06/01/2021,01:09:13.88,42.48,-937.50,396.00,21.28,-21.65,-30.55,-154.35,-57.15,-34.35,32.73,134.23,
06/01/2021,01:09:13.88,39.55,-931.15,398.93,23.48,-20.06,-29.70,-154.35,-57.15,-34.35,32.77,134.23,
06/01/2021,01:09:13.89,26.86,-943.36,397.95,21.65,-17.62,-35.12,-154.05,-55.20,-36.45,32.92,134.24,
06/01/2021,01:09:13.89,48.83,-947.75,413.57,24.70,-12.01,-37.32,-154.05,-55.20,-36.45,32.92,134.24,
06/01/2021,01:09:13.91,72.75,-931.15,420.41,26.95,-6.95,-40.30,-154.65,-53.70,-35.40,32.92,134.23,
06/01/2021,01:09:13.91,86.91,-937.50,420.41,30.79,-4.70,-43.48,-154.65,-53.70,-35.40,32.73,134.24,
06/01/2021,01:09:13.92,77.64,-940.43,428.22,30.55,-5.85,-45.67,-154.95,-55.35,-34.05,32.58,134.24,
06/01/2021,01:09:13.92,90.82,-949.22,430.18,32.99,-5.49,-43.84,-154.95,-55.35,-34.05,32.77,134.24,
06/01/2021,01:09:13.93,113.77,-937.99,428.71,30.61,-6.28,-47.50,-154.05,-55.35,-34.05,32.77,134.24,
06/01/2021,01:09:13.94,116.21,-961.91,460.45,36.59,-10.61,-51.40,-155.85,-55.65,-33.60,32.73,134.24,
06/01/2021,01:09:13.94,144.53,-958.50,461.43,36.89,-9.57,-50.12,-155.85,-55.65,-33.60,32.53,134.24,
06/01/2021,01:09:13.98,188.96,-934.08,456.54,47.26,-26.52,-54.51,-156.45,-54.30,-34.80,32.77,134.23,
06/01/2021,01:09:13.99,202.64,-933.11,477.54,49.27,-30.79,-57.13,-157.05,-55.80,-33.75,32.82,134.23,
06/01/2021,01:09:14.00,208.50,-905.27,500.49,52.87,-30.67,-57.87,-154.65,-54.45,-35.40,32.77,134.23,
06/01/2021,01:09:14.01,216.31,-902.83,541.99,55.00,-40.98,-57.20,-156.90,-53.25,-34.35,32.63,134.23,
06/01/2021,01:09:14.02,228.52,-888.67,566.89,59.76,-44.94,-60.67,-156.90,-53.25,-34.35,33.06,134.23,
06/01/2021,01:09:14.02,229.98,-884.77,580.08,58.05,-49.63,-58.54,-156.60,-54.00,-34.35,32.73,134.23,
06/01/2021,01:09:14.03,245.61,-892.09,595.21,59.39,-52.87,-57.26,-156.60,-54.00,-34.35,32.73,134.23,
06/01/2021,01:09:14.03,272.95,-893.07,603.52,60.43,-55.30,-55.12,-156.60,-54.00,-34.35,32.92,134.23,
06/01/2021,01:09:14.05,304.20,-948.24,596.68,65.49,-82.50,-52.32,-158.40,-52.95,-33.60,32.77,134.23,
06/01/2021,01:09:14.05,309.08,-982.91,579.59,67.13,-87.74,-50.00,-158.40,-52.95,-33.60,32.77,134.23,
06/01/2021,01:09:14.06,308.59,-1015.62,570.31,67.32,-93.41,-51.52,-158.25,-50.40,-33.45,32.92,134.23,
06/01/2021,01:09:14.06,329.59,-1082.03,554.69,65.67,-100.91,-49.76,-158.25,-50.40,-33.45,32.63,134.23,
06/01/2021,01:09:14.07,313.48,-1150.39,568.85,66.65,-104.02,-54.21,-157.65,-49.80,-33.60,32.73,134.23,
06/01/2021,01:09:14.08,227.54,-1303.71,542.97,64.76,-110.61,-57.07,-157.65,-49.80,-33.60,32.77,134.23,
06/01/2021,01:09:14.09,229.49,-1322.27,509.28,66.71,-112.62,-58.78,-160.20,-50.55,-33.60,32.97,134.23,
06/01/2021,01:09:14.09,282.23,-1334.96,479.49,68.78,-113.41,-60.73,-160.20,-50.55,-33.60,32.73,134.23,
06/01/2021,01:09:14.10,340.33,-1326.66,428.22,67.68,-110.79,-62.44,-160.65,-50.25,-33.90,32.73,134.23,
06/01/2021,01:09:14.10,405.76,-1333.01,397.46,69.94,-118.48,-61.46,-160.65,-50.25,-33.90,32.73,134.23,
06/01/2021,01:09:14.12,398.93,-1426.76,300.78,73.48,-148.11,-64.76,-160.05,-49.65,-34.50,32.73,134.23,
06/01/2021,01:09:14.12,353.52,-1476.56,294.43,75.00,-160.00,-65.12,-160.80,-49.20,-32.25,32.92,134.23,
06/01/2021,01:09:14.13,291.99,-1494.63,324.71,80.18,-166.89,-66.83,-160.80,-49.20,-32.25,32.73,134.23,
06/01/2021,01:09:14.13,174.32,-1536.13,351.56,79.15,-174.57,-63.29,-160.80,-49.20,-32.25,32.58,134.23,
06/01/2021,01:09:14.13,64.94,-1573.73,347.66,80.79,-183.23,-60.06,-160.80,-49.20,-32.25,32.77,134.23,
06/01/2021,01:09:14.15,-0.98,-1641.11,334.96,83.60,-209.57,-48.29,-163.20,-46.65,-33.90,32.77,134.23,
06/01/2021,01:09:14.15,-39.55,-1631.35,321.29,85.18,-216.52,-47.44,-163.20,-46.65,-33.90,32.39,134.23,
06/01/2021,01:09:14.16,-71.29,-1593.26,307.62,89.09,-217.80,-44.51,-165.30,-45.75,-34.80,32.82,134.23,
06/01/2021,01:09:14.16,-106.45,-1528.32,300.78,92.74,-213.29,-45.30,-165.30,-45.75,-34.80,32.92,134.23,
06/01/2021,01:09:14.17,-104.49,-1457.52,337.89,96.83,-196.83,-50.06,-166.05,-44.25,-34.05,32.53,134.23,
06/01/2021,01:09:14.18,153.32,-1252.93,577.64,95.98,-103.29,-85.49,-167.10,-43.05,-35.55,32.73,134.23,
06/01/2021,01:09:14.19,414.55,-1235.35,651.37,96.34,-68.48,-102.26,-168.60,-43.50,-36.60,32.82,134.23,
06/01/2021,01:09:14.19,622.56,-1271.48,686.52,93.84,-41.89,-121.89,-168.60,-43.50,-36.60,32.77,134.23,
06/01/2021,01:09:14.20,708.01,-1273.93,730.47,86.22,-40.73,-142.44,-168.60,-43.50,-36.60,32.92,134.23,
06/01/2021,01:09:14.20,745.61,-1289.55,710.94,80.18,-58.23,-145.85,-168.60,-43.50,-36.60,32.73,134.23,
06/01/2021,01:09:14.22,534.18,-1081.54,558.59,89.27,-155.55,-107.01,-169.50,-40.50,-36.45,32.73,134.23,
06/01/2021,01:09:14.22,384.77,-979.49,532.23,92.26,-180.43,-86.28,-169.50,-40.50,-36.45,32.73,134.23,
06/01/2021,01:09:14.23,229.98,-877.93,509.77,93.48,-200.98,-63.54,-169.50,-40.50,-36.45,32.73,134.23,
06/01/2021,01:09:14.23,151.86,-809.57,413.09,91.77,-211.46,-48.05,-168.00,-38.55,-36.15,32.58,134.23,
06/01/2021,01:09:14.24,89.84,-738.28,344.24,85.00,-212.68,-41.16,-168.00,-38.55,-36.15,32.82,134.24,
06/01/2021,01:09:14.25,-40.04,-412.11,455.08,90.00,-166.65,-27.80,-169.65,-36.45,-37.05,32.63,134.23,
06/01/2021,01:09:14.26,-36.13,-310.55,418.95,92.01,-149.51,-22.44,-169.65,-36.45,-37.05,32.77,134.23,
06/01/2021,01:09:14.26,-112.79,-271.97,195.31,82.74,-141.28,-12.01,-171.60,-35.70,-37.80,32.63,134.23,
06/01/2021,01:09:14.26,-187.01,-299.32,-10.25,71.95,-149.39,0.24,-171.60,-35.70,-37.80,32.58,134.24,
06/01/2021,01:09:14.27,-213.38,-343.26,-158.69,63.23,-158.29,15.67,-171.45,-35.10,-39.00,32.73,134.24,
06/01/2021,01:09:14.28,-246.58,-641.60,-298.34,49.70,-166.89,74.02,-172.65,-33.75,-38.85,32.92,134.23,
06/01/2021,01:09:14.29,-271.00,-607.42,-434.57,42.74,-150.67,83.17,-173.40,-34.20,-37.80,32.58,134.24,
06/01/2021,01:09:14.29,-303.71,-580.57,-541.02,36.59,-127.20,86.95,-173.40,-34.20,-37.80,32.92,134.24,
06/01/2021,01:09:14.30,-314.45,-536.13,-530.76,29.94,-103.17,90.91,-173.40,-34.20,-37.80,32.92,134.24,
06/01/2021,01:09:14.31,-293.95,-462.40,-303.71,9.70,-28.60,106.52,-175.05,-35.10,-38.70,32.63,134.23,
06/01/2021,01:09:14.32,-280.27,-502.44,-282.23,-2.56,-10.91,116.46,-175.05,-35.10,-38.70,32.82,134.24,
06/01/2021,01:09:14.32,-257.81,-534.18,-286.62,-11.95,3.17,122.38,-175.05,-35.10,-38.70,32.44,134.24,
06/01/2021,01:09:14.33,-199.22,-541.50,-307.62,-19.51,18.11,133.35,-175.05,-35.10,-38.70,32.58,134.24,
06/01/2021,01:09:14.33,-121.58,-538.09,-315.92,-23.29,32.80,139.63,-172.65,-33.00,-39.90,32.77,134.24,
06/01/2021,01:09:14.35,-48.83,-587.89,-220.70,-41.59,55.12,170.06,-174.15,-32.55,-41.10,32.97,134.24,
06/01/2021,01:09:14.35,-4.88,-616.70,-210.94,-47.01,59.57,176.77,-175.05,-35.55,-37.95,32.82,134.24,
06/01/2021,01:09:14.36,55.66,-650.88,-199.71,-54.76,59.76,183.60,-175.05,-35.55,-37.95,32.73,134.24,
06/01/2021,01:09:14.36,110.35,-700.20,-192.87,-62.13,60.73,186.52,-175.50,-35.10,-39.75,32.82,134.24,
06/01/2021,01:09:14.37,182.62,-752.93,-201.17,-69.88,59.39,196.77,-175.50,-35.10,-39.75,32.77,134.24,
06/01/2021,01:09:14.38,394.04,-891.11,-213.38,-89.57,39.63,216.59,-176.25,-37.50,-38.25,32.77,134.24,
06/01/2021,01:09:14.38,438.96,-914.06,-234.38,-96.04,28.11,220.30,-176.25,-37.50,-38.25,32.77,134.24,
06/01/2021,01:09:14.39,517.58,-950.20,-231.93,-100.91,16.89,227.62,-176.40,-39.15,-36.00,32.77,134.24,
06/01/2021,01:09:14.39,543.46,-978.52,-246.09,-107.26,4.76,232.44,-176.40,-39.15,-36.00,32.73,134.24,
06/01/2021,01:09:14.40,557.62,-1001.46,-230.47,-112.99,-6.04,238.72,-178.20,-39.15,-37.35,32.92,134.24,
06/01/2021,01:09:14.41,538.09,-1060.55,-154.30,-128.90,-34.45,249.09,-179.40,-40.35,-36.00,32.73,134.24,
06/01/2021,01:09:14.42,515.14,-1079.10,-121.58,-131.71,-44.15,256.89,-179.40,-40.35,-36.00,32.77,134.24,
06/01/2021,01:09:14.42,479.49,-1119.63,-96.19,-133.84,-48.23,262.44,-179.40,-40.35,-36.00,32.77,134.24,
06/01/2021,01:09:14.43,457.03,-1139.65,-56.15,-140.55,-51.89,263.05,-180.15,-45.30,-38.10,32.82,134.24,
06/01/2021,01:09:14.43,431.15,-1164.55,-26.86,-142.26,-54.63,264.88,-180.15,-45.30,-38.10,32.73,134.24,
06/01/2021,01:09:14.45,347.17,-1230.96,118.65,-148.17,-61.46,272.38,-179.55,-45.90,-37.95,32.63,134.24,
06/01/2021,01:09:14.45,322.27,-1272.46,135.25,-151.28,-58.41,272.62,-181.05,-49.50,-38.70,33.06,134.24,
06/01/2021,01:09:14.51,229.98,-1565.43,497.56,-134.27,33.66,265.67,-179.70,-59.70,-39.90,32.77,134.23,
06/01/2021,01:09:14.52,323.24,-1542.97,614.26,-123.05,70.12,249.02,-178.35,-62.25,-42.30,32.82,134.23,
06/01/2021,01:09:14.52,389.16,-1525.39,635.25,-120.12,75.73,237.50,-178.35,-62.25,-42.30,32.92,134.23,
06/01/2021,01:09:14.54,720.21,-1437.01,618.65,-107.74,80.85,209.76,-176.55,-63.75,-43.05,32.44,134.23,
06/01/2021,01:09:14.54,912.60,-1417.48,603.03,-111.77,72.20,198.78,-176.55,-63.75,-43.05,32.73,134.23,
06/01/2021,01:09:14.55,1055.18,-1338.38,678.22,-105.43,65.91,185.06,-174.30,-66.45,-43.05,32.63,134.23,
06/01/2021,01:09:14.55,1100.10,-1234.86,757.81,-97.07,57.99,172.68,-174.30,-66.45,-43.05,32.73,134.23,
06/01/2021,01:09:14.56,1086.43,-1103.52,853.52,-85.24,52.13,162.44,-174.30,-66.45,-43.05,32.58,134.23,
06/01/2021,01:09:14.57,1135.74,-846.68,946.29,-52.56,10.43,124.57,-172.80,-66.90,-44.85,32.73,134.23,
06/01/2021,01:09:14.58,1187.01,-787.11,967.77,-41.16,1.22,109.76,-172.80,-66.90,-44.85,32.77,134.23,
06/01/2021,01:09:14.58,1209.96,-713.87,981.93,-30.61,-11.34,91.10,-172.05,-67.20,-45.30,32.73,134.23,
06/01/2021,01:09:14.59,1203.61,-626.46,973.63,-17.68,-22.74,78.17,-172.05,-67.20,-45.30,32.82,134.23,
06/01/2021,01:09:14.59,1186.04,-602.05,939.94,-7.20,-34.76,62.50,-172.05,-67.20,-45.30,32.77,134.23,
06/01/2021,01:09:14.61,1012.21,-660.16,840.82,21.59,-40.55,-0.61,-170.25,-69.15,-46.35,32.73,134.23,
06/01/2021,01:09:14.61,943.36,-674.80,810.55,29.76,-38.17,-12.20,-170.40,-69.00,-45.45,32.77,134.23,
06/01/2021,01:09:14.62,885.25,-687.99,758.30,33.60,-36.59,-26.83,-170.40,-69.00,-45.45,32.73,134.23,
06/01/2021,01:09:14.62,810.06,-715.33,681.64,36.52,-36.16,-44.09,-168.90,-68.25,-45.75,32.82,134.23,
06/01/2021,01:09:14.62,713.87,-747.56,531.25,40.06,-35.98,-54.39,-168.90,-68.25,-45.75,32.25,134.23,
06/01/2021,01:09:14.64,802.25,-1259.77,-598.14,14.88,-18.84,-100.85,-170.25,-67.20,-45.30,32.82,134.23,
06/01/2021,01:09:14.65,613.28,-1500.00,-693.85,2.26,-21.65,-109.88,-170.25,-67.20,-45.30,32.82,134.23,
06/01/2021,01:09:14.65,-28.81,-1671.39,-763.67,2.50,-36.83,-105.12,-172.65,-67.35,-46.20,32.73,134.23,
06/01/2021,01:09:14.66,-903.81,-1828.12,-788.09,5.06,-77.56,-86.65,-172.65,-67.35,-46.20,32.73,134.23,
06/01/2021,01:09:14.66,-1556.64,-1937.01,-844.73,28.35,-116.34,-56.16,-170.85,-67.35,-45.75,32.92,134.23,
06/01/2021,01:09:14.68,-573.73,-1348.63,150.39,52.01,52.26,-67.44,-173.85,-66.30,-46.95,32.92,134.23,
06/01/2021,01:09:14.68,97.66,-1224.12,526.37,48.29,109.45,-87.56,-175.50,-66.90,-46.05,32.63,134.23,
06/01/2021,01:09:14.69,661.62,-1246.58,681.15,42.74,139.82,-109.09,-175.50,-66.90,-46.05,32.82,134.23,
06/01/2021,01:09:14.69,968.26,-1359.86,729.49,40.00,135.30,-133.90,-173.55,-66.00,-45.60,32.77,134.23,
06/01/2021,01:09:14.70,887.21,-1422.85,763.18,44.94,97.93,-147.87,-173.55,-66.00,-45.60,32.58,134.23,
06/01/2021,01:09:14.71,426.76,-1061.52,467.77,99.70,36.46,-112.32,-173.10,-63.90,-45.75,32.73,134.23,
06/01/2021,01:09:14.72,323.24,-1046.88,457.52,98.66,58.78,-116.52,-173.10,-63.90,-45.75,32.63,134.23,
06/01/2021,01:09:14.72,63.96,-1068.85,495.12,96.22,70.30,-124.21,-174.00,-65.70,-44.10,32.73,134.23,
06/01/2021,01:09:14.72,-148.44,-1062.99,519.04,87.38,57.50,-126.34,-174.00,-65.70,-44.10,32.73,134.23,
06/01/2021,01:09:14.73,-189.94,-990.72,493.65,79.94,53.54,-119.09,-173.55,-62.55,-43.80,32.58,134.23,
06/01/2021,01:09:14.74,310.06,-714.84,569.34,72.13,64.94,-96.46,-175.50,-64.50,-43.80,32.82,134.23,
06/01/2021,01:09:14.75,351.07,-707.52,573.73,67.44,47.80,-87.32,-175.05,-63.00,-41.55,32.73,134.23,
06/01/2021,01:09:14.75,351.56,-757.81,487.30,59.02,27.87,-79.33,-175.05,-63.00,-41.55,32.82,134.23,
06/01/2021,01:09:14.76,325.20,-844.24,302.25,52.93,10.85,-69.76,-175.05,-63.00,-41.55,32.92,134.23,
06/01/2021,01:09:14.76,353.52,-939.94,189.45,52.20,2.07,-60.98,-175.05,-63.00,-41.55,32.73,134.23,
06/01/2021,01:09:14.78,230.96,-1102.05,114.75,49.57,5.85,-58.96,-174.90,-61.20,-42.45,32.44,134.23,
06/01/2021,01:09:14.78,172.85,-1112.30,131.84,48.35,7.01,-51.59,-175.50,-62.55,-39.75,32.92,134.23,
06/01/2021,01:09:14.79,164.06,-1112.30,133.30,49.02,8.11,-47.44,-175.50,-62.55,-39.75,32.77,134.23,
06/01/2021,01:09:14.79,149.90,-1079.10,152.34,48.11,13.05,-40.24,-175.80,-61.35,-41.25,32.58,134.23,
06/01/2021,01:09:14.80,125.49,-1062.50,195.80,43.60,17.80,-41.28,-175.80,-61.35,-41.25,32.73,134.23,
06/01/2021,01:09:14.81,1.95,-990.23,249.51,34.76,15.12,-42.80,-175.65,-59.70,-42.45,32.73,134.23,
06/01/2021,01:09:14.82,-9.28,-990.23,233.89,34.02,16.10,-44.21,-175.65,-59.70,-42.45,32.82,134.23,
06/01/2021,01:09:14.82,-45.90,-988.77,241.21,32.26,19.94,-42.87,-175.50,-59.55,-41.25,32.73,134.23,
06/01/2021,01:09:14.82,-47.85,-995.12,253.42,29.88,25.06,-45.43,-175.50,-59.55,-41.25,32.73,134.23,
06/01/2021,01:09:14.83,-30.76,-1001.95,247.07,27.13,32.01,-44.76,-174.90,-60.00,-42.15,32.77,134.24,
06/01/2021,01:09:14.84,130.86,-973.14,210.94,26.65,32.93,-44.63,-175.80,-59.55,-40.20,32.73,134.23,
06/01/2021,01:09:14.85,202.64,-972.66,215.33,21.77,26.65,-44.51,-176.70,-58.95,-39.60,32.77,134.23,
06/01/2021,01:09:14.85,256.84,-958.01,225.10,21.46,19.15,-43.78,-176.70,-58.95,-39.60,32.58,134.23,
06/01/2021,01:09:14.86,259.77,-961.43,234.38,21.65,11.16,-40.43,-176.70,-58.95,-39.60,32.92,134.24,
06/01/2021,01:09:14.86,265.14,-950.68,245.12,22.80,2.50,-37.80,-176.70,-58.95,-39.60,32.82,134.24,
06/01/2021,01:09:14.88,168.46,-991.21,226.07,21.65,-10.37,-32.26,-174.90,-60.45,-39.60,32.82,134.23,
06/01/2021,01:09:14.88,144.04,-1014.16,207.03,21.89,-11.65,-30.98,-174.90,-60.45,-39.60,32.73,134.23,
06/01/2021,01:09:14.89,113.77,-1017.58,208.50,19.94,-4.88,-29.15,-174.90,-60.45,-39.60,32.73,134.24,
06/01/2021,01:09:14.89,111.33,-1024.41,202.15,17.80,-1.95,-33.11,-175.65,-58.20,-39.30,32.82,134.24,
06/01/2021,01:09:14.90,94.24,-1005.37,202.64,16.89,3.17,-30.49,-175.65,-58.20,-39.30,32.63,134.24,
06/01/2021,01:09:14.91,127.44,-978.52,213.87,13.54,17.99,-29.94,-176.55,-57.90,-39.75,32.63,134.24,
06/01/2021,01:09:14.92,151.86,-967.29,215.82,9.82,17.74,-31.28,-176.55,-57.90,-39.75,32.73,134.24,
06/01/2021,01:09:14.92,172.85,-952.15,231.45,9.94,17.62,-33.17,-176.70,-58.95,-38.55,32.82,134.24,
06/01/2021,01:09:14.93,189.94,-935.06,244.14,8.60,17.87,-29.39,-176.70,-58.95,-38.55,32.58,134.24,
06/01/2021,01:09:14.93,209.96,-955.08,250.49,9.94,14.09,-26.04,-176.70,-58.95,-38.55,32.73,134.24,
06/01/2021,01:09:14.95,218.75,-979.00,254.39,8.60,3.05,-22.44,-175.65,-57.30,-37.80,32.58,134.24,
06/01/2021,01:09:14.95,229.49,-975.59,246.58,7.56,1.95,-21.52,-177.75,-57.90,-39.00,32.73,134.24,
06/01/2021,01:09:14.95,217.29,-981.45,242.68,9.51,-5.67,-20.43,-177.75,-57.90,-39.00,32.77,134.24,
06/01/2021,01:09:14.96,208.01,-975.10,241.21,10.24,-5.49,-17.99,-177.75,-57.90,-39.00,32.73,134.24,
06/01/2021,01:09:15.01,122.56,-980.47,250.49,6.10,-4.39,-23.54,-176.40,-58.20,-38.10,32.58,134.23,
06/01/2021,01:09:15.04,175.78,-950.20,265.14,4.76,-6.22,-27.99,-177.00,-57.90,-38.25,32.58,134.23,
06/01/2021,01:09:15.04,193.85,-959.47,266.60,6.28,-8.35,-26.83,-178.05,-57.60,-38.25,33.06,134.23,
06/01/2021,01:09:15.04,187.50,-976.56,243.16,8.66,-12.01,-27.50,-178.05,-57.60,-38.25,32.58,134.23,
06/01/2021,01:09:15.05,199.71,-987.30,227.05,6.83,-13.05,-28.17,-178.05,-57.60,-38.25,32.77,134.23,
06/01/2021,01:09:15.05,182.13,-989.75,222.66,8.48,-13.35,-29.57,-176.70,-56.25,-39.30,32.58,134.23,
06/01/2021,01:09:15.07,152.34,-1000.98,212.89,7.80,-11.16,-34.21,-175.95,-56.25,-38.10,32.58,134.23,
06/01/2021,01:09:15.07,118.65,-997.56,210.94,4.94,-9.63,-35.61,-177.75,-56.40,-39.45,32.73,134.23,
06/01/2021,01:09:15.08,112.30,-996.09,225.10,6.59,-6.40,-38.90,-177.75,-56.40,-39.45,32.82,134.23,
06/01/2021,01:09:15.08,132.32,-981.93,236.82,7.32,-6.40,-40.55,-176.55,-55.95,-39.45,32.92,134.23,
06/01/2021,01:09:15.09,117.68,-987.79,238.28,7.87,-2.62,-44.45,-176.55,-55.95,-39.45,32.92,134.23,
06/01/2021,01:09:15.09,118.16,-983.89,245.12,8.11,-4.15,-46.16,-175.65,-56.55,-39.60,32.39,134.23,
06/01/2021,01:09:15.11,181.15,-983.40,242.19,10.12,-0.49,-52.68,-175.65,-56.55,-39.60,32.73,134.23,
06/01/2021,01:09:15.11,197.75,-986.82,233.40,10.06,1.52,-54.82,-177.15,-56.25,-39.30,32.73,134.23,
06/01/2021,01:09:15.12,202.64,-989.75,211.43,11.59,-2.20,-56.34,-177.15,-56.25,-39.30,32.92,134.23,
06/01/2021,01:09:15.12,206.05,-987.30,219.24,11.83,-1.95,-57.07,-177.90,-55.05,-40.35,32.58,134.23,
06/01/2021,01:09:15.12,220.21,-997.07,225.59,11.77,-2.20,-61.22,-177.90,-55.05,-40.35,32.82,134.23,
06/01/2021,01:09:15.14,221.68,-1007.32,210.94,12.99,-1.28,-64.09,-178.80,-56.40,-40.50,32.73,134.23,
06/01/2021,01:09:15.14,234.86,-1008.30,218.75,15.24,-2.80,-66.89,-178.80,-56.40,-39.45,32.73,134.23,
06/01/2021,01:09:15.15,234.86,-1016.11,207.03,13.66,-2.99,-68.41,-178.80,-56.40,-39.45,32.92,134.23,
06/01/2021,01:09:15.15,253.91,-1004.39,193.36,13.66,-5.73,-68.35,-178.80,-56.40,-39.45,32.92,134.23,
06/01/2021,01:09:15.16,253.91,-1003.91,194.82,14.94,-0.91,-73.05,-178.80,-56.40,-39.45,32.92,134.23,
06/01/2021,01:09:15.17,237.30,-1036.13,200.68,11.16,-1.28,-77.50,-179.10,-54.45,-39.75,32.77,134.23,
06/01/2021,01:09:15.18,248.05,-1045.41,202.64,8.35,0.55,-79.33,-179.10,-54.45,-39.75,32.97,134.23,
06/01/2021,01:09:15.18,256.84,-1049.80,206.05,7.62,1.71,-79.76,-177.45,-53.85,-38.55,32.73,134.23,
06/01/2021,01:09:15.19,273.44,-1069.82,206.54,7.32,6.65,-83.23,-177.45,-53.85,-38.55,32.63,134.23,
06/01/2021,01:09:15.19,289.06,-1060.06,181.15,7.20,6.16,-86.46,-177.75,-52.20,-40.20,32.63,134.23,
06/01/2021,01:09:15.21,381.84,-1127.93,216.80,4.02,7.68,-89.02,-177.75,-52.20,-40.20,32.92,134.23,
06/01/2021,01:09:15.21,365.23,-1144.53,206.54,3.72,5.98,-91.65,-179.55,-52.50,-38.70,32.44,134.23,
06/01/2021,01:09:15.22,366.70,-1148.93,233.40,3.23,-0.98,-88.60,-179.55,-52.50,-38.70,32.73,134.23,
06/01/2021,01:09:15.22,358.40,-1174.32,209.96,1.52,2.68,-92.74,-178.65,-51.60,-41.10,32.73,134.23,
06/01/2021,01:09:15.22,333.50,-1197.75,242.68,-0.79,-3.41,-93.60,-178.65,-51.60,-41.10,32.92,134.23,
06/01/2021,01:09:15.24,304.69,-1176.76,204.10,-3.60,-1.77,-100.49,-179.55,-52.20,-39.45,32.82,134.23,
06/01/2021,01:09:15.25,312.50,-1170.41,208.98,-5.49,-0.30,-104.21,-179.55,-52.20,-39.45,32.63,134.23,
06/01/2021,01:09:15.25,318.85,-1170.41,222.66,-4.63,-1.52,-104.09,-179.55,-52.20,-39.45,32.58,134.23,
06/01/2021,01:09:15.26,315.43,-1168.95,232.91,-5.67,1.65,-110.00,-179.55,-52.20,-39.45,32.73,134.23,
06/01/2021,01:09:15.26,313.96,-1179.69,236.82,-7.13,-2.07,-108.35,-178.20,-51.60,-40.35,32.63,134.23,
06/01/2021,01:09:15.28,273.44,-1277.83,190.92,-12.07,-3.60,-123.48,-178.20,-51.60,-40.35,33.06,134.23,
06/01/2021,01:09:15.28,255.86,-1328.61,212.40,-12.56,-5.79,-127.80,-181.20,-49.95,-39.30,32.73,134.23,
06/01/2021,01:09:15.29,211.43,-1414.55,232.42,-13.41,-5.12,-128.96,-181.20,-49.95,-39.30,32.63,134.23,
06/01/2021,01:09:15.29,173.83,-1458.98,278.81,-13.78,-1.89,-131.04,-178.80,-47.55,-39.75,32.77,134.23,
06/01/2021,01:09:15.30,150.88,-1490.72,283.20,-15.55,-1.71,-134.39,-178.80,-47.55,-39.75,32.73,134.23,
06/01/2021,01:09:15.31,239.26,-1438.96,254.88,-17.13,-8.29,-144.70,-179.70,-48.45,-39.30,32.73,134.23,
06/01/2021,01:09:15.31,272.46,-1448.73,283.69,-14.63,-12.93,-148.84,-179.70,-48.45,-39.30,32.63,134.23,
06/01/2021,01:09:15.32,240.72,-1486.33,278.81,-14.57,-21.34,-149.45,-179.70,-48.45,-39.30,32.82,134.23,
06/01/2021,01:09:15.32,184.57,-1536.62,310.55,-13.35,-29.94,-149.88,-179.70,-48.45,-39.30,32.73,134.23,
06/01/2021,01:09:15.33,130.86,-1546.39,325.68,-11.89,-33.48,-153.11,-179.70,-48.45,-39.30,32.92,134.23,
06/01/2021,01:09:15.34,-10.74,-1496.58,423.83,-9.27,-40.73,-161.04,-181.80,-46.35,-39.45,32.63,134.23,
06/01/2021,01:09:15.35,-76.66,-1450.20,473.14,-3.60,-48.54,-161.77,-181.80,-46.35,-39.45,32.73,134.23,
06/01/2021,01:09:15.35,-98.63,-1398.93,492.19,-0.79,-50.00,-167.01,-180.15,-45.30,-39.60,32.82,134.23,
06/01/2021,01:09:15.36,-54.69,-1419.43,488.77,-0.61,-45.98,-173.78,-180.15,-45.30,-39.60,32.82,134.23,
06/01/2021,01:09:15.36,-100.59,-1506.84,453.12,-2.44,-44.82,-183.84,-180.30,-44.85,-39.75,32.73,134.24,
06/01/2021,01:09:15.38,83.01,-1636.72,460.45,-11.65,-39.21,-188.90,-180.30,-44.85,-39.75,32.58,134.23,
06/01/2021,01:09:15.38,275.88,-1648.44,477.54,-12.38,-24.88,-196.22,-181.05,-44.40,-41.25,32.73,134.23,
06/01/2021,01:09:15.39,299.80,-1679.20,508.79,-14.94,-4.57,-205.79,-181.05,-44.40,-41.25,32.73,134.23,
06/01/2021,01:09:15.39,231.93,-1696.78,509.77,-22.13,4.94,-210.30,-180.45,-43.50,-40.35,32.82,134.24,
06/01/2021,01:09:15.40,106.93,-1663.57,500.00,-25.00,13.05,-216.22,-180.45,-43.50,-40.35,32.73,134.24,
06/01/2021,01:09:15.41,-205.57,-1280.76,418.46,-29.27,49.02,-196.59,-181.50,-40.65,-40.35,32.77,134.23,
06/01/2021,01:09:15.42,-276.37,-1167.97,396.97,-31.46,73.78,-190.61,-181.50,-40.65,-40.35,32.73,134.23,
06/01/2021,01:09:15.42,-430.18,-1083.98,375.00,-34.33,93.23,-179.45,-181.50,-40.65,-40.35,32.44,134.24,
06/01/2021,01:09:15.43,-564.45,-1002.93,342.77,-38.60,115.00,-161.46,-181.50,-40.65,-40.35,32.77,134.24,
06/01/2021,01:09:15.44,-345.70,-588.87,298.83,-33.90,142.44,-109.63,-179.10,-39.00,-39.75,32.44,134.23,
06/01/2021,01:09:15.44,-47.85,-502.44,250.49,-38.66,160.85,-111.22,-179.10,-39.00,-39.75,32.73,134.24,
06/01/2021,01:09:15.45,209.96,-430.18,312.01,-44.45,175.98,-118.11,-179.10,-39.00,-39.75,32.82,134.24,
06/01/2021,01:09:15.45,237.79,-408.69,450.20,-53.60,179.15,-113.23,-179.70,-38.40,-39.30,32.73,134.24,
06/01/2021,01:09:15.46,51.76,-514.65,369.63,-65.91,166.71,-98.48,-179.70,-38.40,-39.30,32.92,134.24,
06/01/2021,01:09:15.52,-153.32,-564.45,320.80,-95.18,94.82,97.13,-175.65,-41.10,-36.60,32.92,134.23,
06/01/2021,01:09:15.54,-37.60,-647.46,429.69,-107.87,87.13,133.96,-174.00,-40.95,-34.65,32.77,134.23,
06/01/2021,01:09:15.54,-19.53,-645.02,427.73,-111.22,78.23,152.07,-174.00,-40.95,-34.65,32.58,134.23,
06/01/2021,01:09:15.55,-25.39,-666.02,412.11,-111.77,66.10,164.57,-174.00,-40.95,-34.65,32.73,134.23,
06/01/2021,01:09:15.55,-31.74,-658.69,395.51,-113.23,53.90,176.59,-174.00,-40.95,-34.65,32.77,134.23,
06/01/2021,01:09:15.57,-131.84,-730.96,314.45,-116.10,40.67,211.65,-173.55,-45.15,-32.10,32.73,134.23,
06/01/2021,01:09:15.57,-124.51,-759.28,325.20,-119.39,41.83,219.33,-173.55,-45.15,-32.10,32.77,134.23,
06/01/2021,01:09:15.57,-148.44,-802.25,323.73,-120.49,48.60,229.09,-174.00,-45.90,-35.40,32.92,134.23,
06/01/2021,01:09:15.58,-133.30,-852.54,326.17,-125.00,56.28,242.01,-174.00,-45.90,-35.40,32.77,134.23,
06/01/2021,01:09:15.58,-116.70,-870.61,362.79,-123.90,60.73,250.49,-171.00,-47.55,-33.60,32.73,134.23,
06/01/2021,01:09:15.60,49.80,-1015.62,467.77,-129.02,69.57,276.10,-171.00,-47.55,-33.60,32.63,134.23,
06/01/2021,01:09:15.60,112.79,-1051.76,505.37,-127.56,67.50,281.71,-171.75,-49.50,-33.60,32.44,134.23,
06/01/2021,01:09:15.61,176.27,-1066.41,515.62,-129.57,66.77,289.45,-171.75,-49.50,-33.60,32.82,134.23,
06/01/2021,01:09:15.61,209.47,-1066.41,530.76,-125.37,62.44,298.23,-171.75,-49.50,-33.60,32.73,134.23,
06/01/2021,01:09:15.62,228.52,-1096.19,508.79,-125.00,64.70,303.96,-171.75,-49.50,-33.60,32.58,134.23,
06/01/2021,01:09:15.63,197.75,-1179.69,501.46,-115.37,87.07,316.34,-168.45,-54.45,-34.35,32.77,134.23,
06/01/2021,01:09:15.64,206.54,-1247.07,488.28,-111.71,96.28,316.89,-168.45,-54.45,-34.35,32.63,134.23,
06/01/2021,01:09:15.64,185.55,-1328.61,498.05,-111.95,106.52,319.27,-167.10,-56.25,-34.05,32.92,134.23,
06/01/2021,01:09:15.65,192.38,-1390.62,491.70,-112.44,117.44,319.39,-167.10,-56.25,-34.05,32.77,134.23,
06/01/2021,01:09:15.65,197.75,-1459.47,519.53,-112.32,126.10,318.17,-167.10,-56.25,-34.05,32.73,134.23,
06/01/2021,01:09:15.67,255.86,-1613.77,584.47,-114.09,154.02,319.02,-166.05,-57.30,-34.80,32.73,134.23,
06/01/2021,01:09:15.67,280.76,-1654.79,619.63,-114.57,160.18,318.54,-166.05,-57.30,-34.80,32.58,134.23,
06/01/2021,01:09:15.68,354.00,-1701.66,643.55,-114.33,170.73,320.24,-162.00,-60.00,-35.25,32.77,134.23,
06/01/2021,01:09:15.68,414.06,-1739.75,686.04,-115.67,169.88,317.13,-162.00,-60.00,-35.25,32.92,134.23,
06/01/2021,01:09:15.68,497.56,-1733.40,713.87,-115.67,172.87,314.70,-158.40,-60.30,-35.40,32.73,134.23,
06/01/2021,01:09:15.70,585.45,-1661.13,800.29,-108.84,180.73,297.87,-156.60,-63.00,-36.90,33.06,134.23,
06/01/2021,01:09:15.70,604.00,-1617.68,813.48,-106.28,187.68,289.88,-154.65,-62.55,-37.65,32.92,134.23,
06/01/2021,01:09:15.71,611.33,-1578.61,838.38,-104.70,191.28,280.12,-154.65,-62.55,-37.65,32.58,134.23,
06/01/2021,01:09:15.71,642.09,-1557.13,861.33,-101.16,198.35,271.59,-154.65,-62.55,-37.65,32.53,134.23,
06/01/2021,01:09:15.72,725.59,-1533.69,846.68,-99.45,195.79,259.88,-154.65,-62.55,-37.65,32.77,134.23,
06/01/2021,01:09:15.73,1287.11,-1467.29,912.11,-102.99,158.05,209.82,-148.20,-63.15,-40.65,32.39,134.23,
06/01/2021,01:09:15.74,1322.27,-1373.54,1009.28,-94.15,151.46,195.18,-148.20,-63.15,-40.65,32.73,134.23,
06/01/2021,01:09:15.74,1353.03,-1260.25,1082.52,-84.45,136.95,183.17,-146.55,-63.00,-43.80,32.73,134.23,
06/01/2021,01:09:15.75,1400.39,-1138.67,1116.70,-74.76,119.33,171.46,-146.55,-63.00,-43.80,32.73,134.23,
06/01/2021,01:09:15.75,1497.56,-1057.62,1092.77,-67.80,104.27,156.04,-143.40,-63.60,-46.50,32.73,134.23,
06/01/2021,01:09:15.77,1903.32,-821.29,1183.11,-38.29,47.56,108.41,-143.40,-63.60,-46.50,32.58,134.23,
06/01/2021,01:09:15.77,1939.94,-677.25,1220.70,-24.94,31.52,90.30,-142.50,-61.35,-47.40,32.58,134.23,
06/01/2021,01:09:15.78,1881.84,-563.96,1222.66,-8.66,12.80,72.56,-142.50,-61.35,-47.40,32.73,134.23,
06/01/2021,01:09:15.78,1819.34,-500.98,1162.11,4.02,-4.82,58.35,-142.50,-61.35,-47.40,32.44,134.23,
06/01/2021,01:09:15.79,1784.67,-505.37,1087.40,17.26,-13.84,40.91,-142.50,-61.35,-47.40,32.73,134.23,
06/01/2021,01:09:15.80,1481.45,-662.11,906.25,45.37,-23.90,-25.98,-143.85,-61.95,-51.00,32.73,134.23,
06/01/2021,01:09:15.81,1375.49,-674.32,844.73,50.55,-23.84,-40.91,-143.85,-63.15,-51.30,32.58,134.23,
06/01/2021,01:09:15.81,1304.69,-704.59,793.46,58.05,-19.02,-57.20,-143.85,-63.15,-51.30,32.82,134.23,
06/01/2021,01:09:15.82,1247.07,-697.75,731.93,60.91,-13.60,-73.29,-143.85,-62.70,-50.55,32.63,134.23,
06/01/2021,01:09:15.82,1179.69,-749.02,424.32,61.28,-13.78,-84.09,-143.85,-62.70,-50.55,32.73,134.23,
06/01/2021,01:09:15.84,1143.07,-1877.44,-1029.79,-10.06,32.99,-154.27,-142.80,-61.80,-52.20,32.53,134.23,
06/01/2021,01:09:15.84,623.54,-2137.21,-732.91,10.73,43.05,-158.35,-146.55,-63.75,-52.65,32.53,134.23,
06/01/2021,01:09:15.85,-101.56,-2399.90,-224.61,37.99,37.38,-153.35,-146.55,-63.75,-52.65,32.58,134.23,
06/01/2021,01:09:15.85,-746.09,-2666.02,90.33,54.94,22.32,-133.05,-145.95,-63.15,-52.05,32.82,134.23,
06/01/2021,01:09:15.87,-1060.55,-1804.69,622.56,92.26,77.20,-131.89,-147.15,-64.35,-53.85,32.73,134.23,
06/01/2021,01:09:15.87,-861.33,-1318.85,453.61,93.17,120.49,-146.40,-148.35,-64.05,-54.75,32.73,134.23,
06/01/2021,01:09:15.88,-640.14,-979.00,291.99,86.83,152.44,-154.82,-148.35,-64.05,-54.75,32.63,134.23,
06/01/2021,01:09:15.88,-341.80,-739.26,134.28,79.33,173.72,-157.87,-148.35,-64.05,-54.75,32.92,134.23,
06/01/2021,01:09:15.89,-14.16,-632.81,55.66,72.13,174.76,-155.73,-148.35,-64.05,-54.75,32.53,134.23,
06/01/2021,01:09:15.90,892.58,-563.96,360.84,53.60,102.74,-124.15,-149.55,-64.95,-55.50,32.92,134.23,
06/01/2021,01:09:15.91,1025.88,-486.82,734.86,62.32,72.32,-113.05,-150.90,-65.10,-54.90,32.73,134.23,
06/01/2021,01:09:15.91,1102.05,-422.85,986.33,72.01,50.98,-99.63,-150.90,-65.10,-54.90,32.73,134.23,
06/01/2021,01:09:15.92,1065.92,-469.24,998.54,77.99,31.59,-91.28,-151.05,-63.75,-55.80,32.73,134.23,
06/01/2021,01:09:15.92,916.02,-635.74,963.87,73.23,-2.74,-78.48,-151.05,-63.75,-55.80,32.58,134.23,
06/01/2021,01:09:15.94,322.27,-1069.34,336.43,62.38,-86.04,-48.54,-151.35,-65.25,-56.55,32.73,134.23,
06/01/2021,01:09:15.94,236.82,-1125.00,340.82,60.61,-79.82,-43.35,-151.35,-65.25,-56.55,32.77,134.23,
06/01/2021,01:09:15.94,156.25,-1167.97,377.93,55.00,-69.57,-43.29,-151.05,-64.05,-55.50,32.82,134.23,
06/01/2021,01:09:15.95,84.96,-1178.71,414.55,48.11,-52.20,-47.20,-151.05,-64.05,-55.50,32.73,134.23,
06/01/2021,01:09:15.95,-27.34,-1167.97,409.18,41.10,-31.46,-51.22,-151.05,-64.05,-55.50,32.92,134.23,
06/01/2021,01:09:15.97,-104.98,-1078.61,187.01,23.54,16.59,-48.54,-152.70,-65.85,-54.15,32.73,134.23,
06/01/2021,01:09:15.97,25.88,-1071.78,130.86,20.30,26.71,-50.85,-153.75,-64.35,-54.60,32.73,134.23,
06/01/2021,01:09:15.98,139.65,-1058.11,122.56,19.02,38.41,-52.62,-153.75,-64.35,-54.60,32.92,134.23,
06/01/2021,01:09:16.03,247.56,-965.82,265.62,25.61,0.61,-17.87,-155.70,-66.60,-53.85,32.97,134.23,
06/01/2021,01:09:16.05,146.97,-990.72,302.25,23.84,-15.24,-12.01,-155.25,-64.35,-54.60,32.73,134.23,
06/01/2021,01:09:16.06,67.38,-993.65,300.78,24.02,-24.15,-7.87,-155.25,-64.35,-54.60,33.06,134.23,
06/01/2021,01:09:16.06,32.71,-984.38,295.90,21.28,-21.52,-9.45,-155.25,-63.15,-54.90,32.77,134.23,
06/01/2021,01:09:16.07,52.73,-982.42,296.88,19.09,-24.27,-8.90,-155.25,-63.15,-54.90,32.73,134.23,
06/01/2021,01:09:16.07,40.53,-983.40,273.44,17.20,-20.49,-9.02,-154.20,-64.65,-55.35,32.73,134.23,
06/01/2021,01:09:16.08,57.13,-1010.25,249.02,17.38,-21.59,-6.16,-154.20,-64.65,-55.35,32.82,134.23,
06/01/2021,01:09:16.08,88.38,-988.77,247.56,15.55,-20.00,-8.84,-154.20,-64.65,-55.35,32.63,134.23,
06/01/2021,01:09:16.10,89.36,-981.45,223.14,20.00,-8.54,-10.30,-156.00,-64.65,-54.15,32.77,134.23,
06/01/2021,01:09:16.10,100.59,-994.63,199.22,18.84,-8.90,-10.30,-156.00,-64.65,-54.15,32.82,134.23,
06/01/2021,01:09:16.11,64.94,-977.05,222.66,19.57,-5.24,-10.73,-156.00,-64.65,-54.15,32.77,134.23,
06/01/2021,01:09:16.11,63.96,-977.05,234.38,17.07,-3.41,-13.29,-156.00,-64.65,-54.15,32.73,134.23,
06/01/2021,01:09:16.12,57.62,-964.84,242.19,18.05,-2.26,-15.43,-154.95,-63.90,-54.15,32.82,134.23,
06/01/2021,01:09:16.13,115.72,-965.33,290.04,17.44,-1.40,-14.02,-154.35,-65.70,-54.75,32.82,134.23,
06/01/2021,01:09:16.14,121.09,-965.33,295.90,17.26,-1.46,-14.45,-156.15,-64.50,-54.00,32.63,134.23,
06/01/2021,01:09:16.14,141.11,-970.70,302.25,18.90,-8.23,-14.27,-156.15,-64.50,-54.00,32.58,134.23,
06/01/2021,01:09:16.14,160.64,-966.31,318.36,17.87,-17.87,-16.04,-154.65,-64.95,-54.00,32.92,134.23,
06/01/2021,01:09:16.15,172.36,-975.59,302.25,18.72,-19.76,-14.21,-154.65,-64.95,-54.00,32.73,134.23,
06/01/2021,01:09:16.16,137.21,-972.17,287.11,16.89,-33.41,-15.30,-156.75,-65.10,-53.85,32.92,134.23,
06/01/2021,01:09:16.17,115.72,-965.82,298.34,18.05,-36.04,-16.10,-156.75,-65.10,-53.85,32.92,134.23,
06/01/2021,01:09:16.17,83.98,-976.56,284.18,19.21,-35.85,-13.11,-156.75,-65.10,-53.85,32.92,134.23,
06/01/2021,01:09:16.18,74.22,-969.73,284.67,17.07,-36.71,-16.65,-156.75,-65.10,-53.85,32.92,134.23,
06/01/2021,01:09:16.18,57.62,-969.73,265.62,17.13,-32.74,-17.20,-156.75,-65.10,-53.85,32.97,134.23,
06/01/2021,01:09:16.20,63.96,-972.17,263.18,14.51,-18.78,-23.29,-157.05,-64.35,-53.10,32.73,134.23,
06/01/2021,01:09:16.20,62.01,-984.38,273.93,15.85,-13.66,-26.10,-157.05,-64.35,-53.10,32.58,134.23,
06/01/2021,01:09:16.21,71.78,-970.21,250.49,13.60,-10.85,-27.44,-155.40,-63.30,-52.65,32.92,134.23,
06/01/2021,01:09:16.21,103.52,-971.68,271.48,13.72,-9.15,-27.93,-155.40,-63.30,-52.65,32.97,134.23,
06/01/2021,01:09:16.22,109.86,-981.93,274.41,13.05,-6.71,-29.15,-156.00,-65.10,-53.85,32.82,134.23,
06/01/2021,01:09:16.23,125.00,-967.29,291.50,15.91,-8.90,-32.99,-156.00,-65.10,-53.85,32.77,134.23,
06/01/2021,01:09:16.24,109.38,-962.89,288.57,14.27,-12.50,-31.10,-157.65,-64.95,-52.20,32.63,134.23,
06/01/2021,01:09:16.24,120.61,-967.29,290.53,15.91,-11.16,-29.02,-157.65,-64.95,-52.20,32.82,134.23,
06/01/2021,01:09:16.24,116.21,-964.84,284.18,15.55,-9.02,-32.68,-156.60,-63.75,-54.00,32.73,134.23,
06/01/2021,01:09:16.25,104.00,-961.43,288.57,13.60,-8.54,-34.02,-156.60,-63.75,-54.00,32.82,134.23,
06/01/2021,01:09:16.26,110.35,-959.47,291.99,16.65,-3.48,-35.49,-156.75,-64.35,-52.80,32.73,134.23,
06/01/2021,01:09:16.27,114.75,-963.38,300.78,15.67,-3.84,-39.39,-156.75,-64.35,-52.80,32.73,134.23,
06/01/2021,01:09:16.27,118.16,-965.33,292.48,15.85,-0.37,-39.27,-156.75,-64.35,-52.80,32.92,134.23,
06/01/2021,01:09:16.28,125.98,-968.26,300.78,16.16,0.24,-41.65,-156.75,-64.35,-52.80,32.77,134.23,
06/01/2021,01:09:16.28,140.14,-966.80,285.16,16.71,-0.30,-44.70,-156.75,-64.35,-52.80,32.92,134.23,
06/01/2021,01:09:16.30,166.99,-967.29,298.83,16.71,0.49,-45.00,-158.10,-63.75,-53.70,32.77,134.23,
06/01/2021,01:09:16.30,174.32,-970.70,299.80,18.48,-0.91,-46.46,-158.10,-63.75,-53.70,32.73,134.23,
06/01/2021,01:09:16.31,198.73,-971.68,303.71,18.48,-3.35,-50.37,-159.15,-63.75,-52.20,32.82,134.23,
06/01/2021,01:09:16.31,189.94,-982.91,302.25,18.35,-5.00,-47.87,-159.15,-63.75,-52.20,32.63,134.23,
06/01/2021,01:09:16.32,192.38,-985.35,293.46,18.54,-4.51,-52.68,-159.00,-63.90,-52.80,32.77,134.23,
06/01/2021,01:09:16.33,232.42,-1014.16,289.55,18.60,-15.00,-55.49,-159.00,-63.90,-52.80,32.58,134.23,
06/01/2021,01:09:16.34,218.75,-1011.23,290.04,19.21,-13.78,-57.01,-160.05,-64.65,-53.55,32.73,134.23,
06/01/2021,01:09:16.34,220.21,-1007.81,291.50,22.38,-12.74,-54.94,-160.05,-64.65,-53.55,32.77,134.23,
06/01/2021,01:09:16.34,227.05,-1010.25,285.64,21.71,-15.98,-57.38,-160.05,-64.65,-53.55,32.73,134.23,
06/01/2021,01:09:16.35,229.00,-1008.30,286.62,19.45,-18.96,-60.43,-160.05,-64.65,-53.55,32.73,134.23,
06/01/2021,01:09:16.37,231.45,-988.77,307.62,21.40,-18.05,-65.24,-161.25,-65.40,-52.35,32.92,134.23,
06/01/2021,01:09:16.37,245.61,-990.23,315.43,19.63,-18.66,-65.30,-161.25,-65.40,-52.35,32.44,134.23,
06/01/2021,01:09:16.37,235.35,-979.98,313.96,18.17,-14.63,-67.26,-161.25,-65.40,-52.35,32.77,134.23,
06/01/2021,01:09:16.38,246.09,-998.54,329.10,19.94,-18.90,-67.99,-161.40,-64.05,-51.90,32.63,134.23,
06/01/2021,01:09:16.38,272.46,-990.23,325.68,18.35,-16.34,-69.63,-161.40,-64.05,-51.90,32.82,134.23,
06/01/2021,01:09:16.40,298.83,-997.07,319.82,19.88,-21.65,-71.95,-160.65,-63.75,-51.90,32.92,134.23,
06/01/2021,01:09:16.40,301.76,-1012.21,300.78,15.49,-24.82,-73.35,-160.65,-63.75,-51.90,32.39,134.23,
06/01/2021,01:09:16.41,310.55,-1024.41,329.59,17.26,-23.35,-75.67,-162.15,-63.00,-52.95,32.92,134.23,
06/01/2021,01:09:16.41,310.06,-1027.34,333.50,17.74,-27.26,-76.10,-162.15,-63.00,-52.95,32.58,134.23,
06/01/2021,01:09:16.42,317.87,-1083.01,331.05,18.48,-27.74,-75.79,-160.65,-61.80,-51.90,32.73,134.23,
06/01/2021,01:09:16.44,257.81,-1154.30,288.57,16.46,-31.04,-86.59,-165.45,-62.55,-50.70,32.58,134.23,
06/01/2021,01:09:16.44,254.88,-1173.34,298.34,15.73,-33.66,-90.18,-165.45,-62.55,-50.70,32.77,134.23,
06/01/2021,01:09:16.44,276.86,-1174.32,280.76,15.55,-33.84,-94.15,-165.45,-62.55,-50.70,32.73,134.23,
06/01/2021,01:09:16.45,277.83,-1198.73,249.02,16.40,-32.80,-96.52,-165.45,-62.55,-50.70,32.73,134.23,
06/01/2021,01:09:16.45,281.74,-1217.29,242.68,13.90,-29.76,-99.33,-164.40,-62.55,-51.90,32.58,134.23,
06/01/2021,01:09:16.47,250.00,-1381.35,346.68,10.24,-30.91,-110.12,-165.15,-61.80,-51.90,32.44,134.23,
06/01/2021,01:09:16.47,224.12,-1411.62,350.59,11.22,-28.48,-116.77,-165.15,-61.80,-51.90,32.82,134.23,
06/01/2021,01:09:16.48,230.96,-1411.62,350.10,9.82,-25.55,-118.41,-166.35,-61.95,-53.10,32.82,134.23,
06/01/2021,01:09:16.48,250.00,-1405.27,309.57,11.65,-26.71,-123.60,-166.35,-61.95,-53.10,32.73,134.23,
06/01/2021,01:09:16.54,18.55,-1452.15,451.66,22.07,-64.88,-147.38,-171.75,-57.90,-52.95,32.73,134.23,
06/01/2021,01:09:16.56,-97.17,-1344.73,557.62,40.67,-54.45,-148.54,-171.90,-55.05,-53.10,32.77,134.23,
06/01/2021,01:09:16.56,70.80,-1362.79,524.41,44.33,-46.89,-153.29,-171.90,-55.05,-53.10,32.77,134.23,
06/01/2021,01:09:16.57,217.77,-1404.79,508.30,41.77,-37.74,-161.46,-171.90,-55.05,-53.10,32.82,134.23,
06/01/2021,01:09:16.57,320.31,-1419.43,513.67,42.68,-26.95,-165.55,-171.90,-55.05,-53.10,32.73,134.23,
06/01/2021,01:09:16.58,385.74,-1436.52,501.46,44.76,-24.76,-173.17,-174.00,-52.20,-51.90,32.77,134.23,
06/01/2021,01:09:16.59,241.70,-1386.23,454.10,36.83,-45.73,-173.90,-174.15,-49.65,-52.80,32.73,134.23,
06/01/2021,01:09:16.60,210.94,-1341.31,435.06,34.70,-52.01,-171.65,-176.70,-48.45,-51.00,32.44,134.23,
06/01/2021,01:09:16.60,188.96,-1272.95,443.36,30.67,-52.01,-167.93,-176.70,-48.45,-51.00,32.73,134.23,
06/01/2021,01:09:16.61,143.07,-1200.20,424.80,28.78,-45.61,-163.11,-178.20,-45.30,-51.30,32.97,134.23,
06/01/2021,01:09:16.61,103.52,-1157.23,380.86,25.43,-42.13,-160.98,-178.20,-45.30,-51.30,32.44,134.23,
06/01/2021,01:09:16.63,-168.95,-987.79,312.50,13.90,-43.84,-125.37,-177.00,-42.45,-47.40,32.73,134.23,
06/01/2021,01:09:16.63,-278.32,-913.57,314.94,12.26,-46.46,-102.26,-177.00,-42.45,-47.40,32.77,134.23,
06/01/2021,01:09:16.64,-387.21,-798.83,326.66,10.67,-44.88,-80.43,-176.55,-40.50,-46.35,32.58,134.23,
06/01/2021,01:09:16.64,-403.81,-678.22,293.95,13.54,-42.99,-61.59,-176.55,-40.50,-46.35,32.92,134.23,
06/01/2021,01:09:16.65,-335.94,-564.94,207.52,13.54,-30.00,-48.35,-177.15,-39.90,-45.75,32.58,134.23,
06/01/2021,01:09:16.66,272.46,-172.85,222.17,5.85,25.06,-55.55,-175.80,-39.00,-43.80,32.82,134.23,
06/01/2021,01:09:16.67,306.15,-186.04,176.76,-4.63,32.44,-56.52,-175.80,-39.00,-43.80,32.73,134.23,
06/01/2021,01:09:16.67,221.19,-276.37,270.02,-9.09,36.89,-52.44,-175.80,-39.00,-43.80,32.82,134.23,
06/01/2021,01:09:16.67,232.42,-325.68,385.74,-4.09,29.70,-37.01,-176.25,-37.80,-41.25,32.73,134.23,
06/01/2021,01:09:16.68,245.12,-367.19,437.01,0.85,19.15,-25.61,-176.25,-37.80,-41.25,32.63,134.23,
06/01/2021,01:09:16.69,-337.40,-489.75,138.18,-20.12,-28.54,50.79,-176.25,-37.80,-41.25,32.73,134.23,
06/01/2021,01:09:16.70,-453.61,-544.43,77.15,-28.23,-31.77,80.30,-174.60,-38.85,-37.05,32.53,134.23,
06/01/2021,01:09:16.70,-494.63,-558.59,83.01,-31.46,-29.70,101.04,-174.60,-38.85,-37.05,32.77,134.23,
06/01/2021,01:09:16.71,-503.42,-518.55,74.22,-30.30,-17.44,116.10,-174.15,-38.85,-38.10,32.63,134.23,
06/01/2021,01:09:16.71,-483.40,-483.89,50.78,-30.49,-5.00,119.33,-174.15,-38.85,-38.10,32.77,134.23,
06/01/2021,01:09:16.73,-289.55,-428.71,33.69,-40.18,52.87,115.73,-173.40,-40.65,-35.55,32.82,134.23,
06/01/2021,01:09:16.73,-251.46,-437.50,69.34,-42.62,67.68,124.15,-173.40,-40.65,-35.55,32.77,134.23,
06/01/2021,01:09:16.74,-213.87,-489.75,104.49,-45.30,76.16,135.43,-173.40,-40.65,-35.55,32.73,134.23,
06/01/2021,01:09:16.74,-190.43,-528.32,121.58,-49.76,80.30,146.71,-173.40,-40.65,-35.55,32.63,134.23,
06/01/2021,01:09:16.75,-148.93,-566.89,121.09,-56.34,79.45,160.37,-172.35,-39.60,-35.25,32.82,134.23,
06/01/2021,01:09:16.76,-68.36,-648.44,112.79,-68.72,65.79,202.01,-171.00,-42.45,-33.15,32.73,134.23,
06/01/2021,01:09:16.77,-52.73,-670.90,124.02,-72.62,63.48,213.41,-170.85,-42.60,-32.25,32.58,134.23,
06/01/2021,01:09:16.77,-42.97,-703.61,125.98,-72.44,55.85,221.34,-170.85,-42.60,-32.25,32.77,134.23,
06/01/2021,01:09:16.77,-27.34,-743.65,129.88,-71.04,57.50,234.27,-169.95,-45.60,-33.15,32.63,134.23,
06/01/2021,01:09:16.78,4.88,-780.76,124.51,-73.41,58.23,242.80,-169.95,-45.60,-33.15,32.92,134.23,
06/01/2021,01:09:16.80,140.14,-908.69,164.55,-80.91,51.46,267.56,-169.95,-45.60,-33.15,32.77,134.23,
06/01/2021,01:09:16.80,192.38,-958.01,187.99,-81.95,46.89,279.57,-168.45,-47.55,-30.30,32.77,134.23,
06/01/2021,01:09:16.80,221.68,-1000.98,195.31,-83.72,40.67,283.29,-168.45,-47.55,-30.30,32.77,134.23,
06/01/2021,01:09:16.81,255.86,-1018.07,213.38,-85.98,37.62,292.01,-168.60,-47.70,-29.70,32.73,134.23,
06/01/2021,01:09:16.81,257.32,-1061.52,228.52,-85.67,32.68,299.70,-168.60,-47.70,-29.70,32.77,134.23,
06/01/2021,01:09:16.83,248.05,-1174.32,232.91,-83.48,34.21,312.13,-167.25,-51.30,-29.55,32.58,134.23,
06/01/2021,01:09:16.83,220.21,-1208.98,243.16,-83.35,37.93,314.63,-167.25,-51.30,-29.55,32.53,134.23,
06/01/2021,01:09:16.84,196.29,-1271.48,257.81,-80.79,45.85,316.52,-167.25,-51.30,-29.55,32.92,134.23,
06/01/2021,01:09:16.84,189.94,-1323.24,275.88,-81.10,54.27,320.18,-167.25,-51.30,-29.55,32.58,134.23,
06/01/2021,01:09:16.85,178.22,-1398.44,301.76,-79.57,60.18,321.65,-164.85,-51.90,-30.45,32.92,134.23,
06/01/2021,01:09:16.86,203.12,-1581.54,342.77,-84.51,84.02,324.27,-162.75,-54.30,-29.70,32.58,134.23,
06/01/2021,01:09:16.87,225.59,-1620.12,362.30,-87.01,92.26,327.01,-161.25,-54.60,-28.65,33.06,134.23,
06/01/2021,01:09:16.87,259.77,-1673.83,373.54,-87.80,104.02,322.93,-161.25,-54.60,-28.65,32.63,134.23,
06/01/2021,01:09:16.88,307.13,-1712.89,403.32,-89.15,110.61,324.82,-160.50,-55.05,-28.65,32.63,134.23,
06/01/2021,01:09:16.88,361.82,-1757.81,416.99,-90.79,122.26,321.65,-160.50,-55.05,-28.65,32.63,134.23,
06/01/2021,01:09:16.90,551.27,-1836.43,511.23,-90.67,155.30,312.80,-155.70,-57.75,-28.65,32.97,134.23,
06/01/2021,01:09:16.90,638.67,-1840.82,541.50,-90.79,159.51,302.68,-155.70,-57.75,-28.65,32.82,134.23,
06/01/2021,01:09:16.90,678.71,-1790.04,564.94,-91.34,162.50,292.50,-155.70,-57.75,-28.65,32.63,134.23,
06/01/2021,01:09:16.91,741.21,-1739.26,600.59,-90.79,166.04,284.39,-155.70,-57.75,-28.65,32.63,134.23,
06/01/2021,01:09:16.91,772.46,-1674.80,628.42,-88.66,165.55,274.82,-155.70,-57.75,-28.65,32.73,134.23,
06/01/2021,01:09:16.93,1103.52,-1578.12,655.27,-92.99,157.62,211.77,-151.05,-57.90,-31.05,32.63,134.23,
06/01/2021,01:09:16.93,1037.60,-1496.09,641.11,-88.05,160.49,195.85,-151.05,-57.90,-31.05,32.77,134.23,
06/01/2021,01:09:16.94,1100.10,-1491.70,771.97,-89.82,149.39,190.55,-148.20,-58.20,-32.25,32.82,134.23,
06/01/2021,01:09:16.94,1405.76,-1491.70,911.13,-87.87,141.10,176.04,-148.20,-58.20,-32.25,32.82,134.23,
06/01/2021,01:09:16.95,1473.14,-1325.68,1041.50,-79.15,128.35,162.74,-147.00,-57.60,-32.10,32.73,134.23,
06/01/2021,01:09:16.96,1574.71,-686.52,1086.91,-33.29,48.17,116.46,-147.00,-57.60,-32.10,32.92,134.23,
06/01/2021,01:09:16.97,1670.90,-613.28,1023.93,-19.63,21.59,104.09,-144.00,-58.35,-31.35,32.92,134.23,
06/01/2021,01:09:16.97,1737.79,-557.62,964.84,-7.74,-6.59,83.48,-144.00,-58.35,-31.35,32.82,134.23,
06/01/2021,01:09:16.98,1725.10,-532.71,948.73,4.63,-27.74,60.85,-143.55,-58.65,-32.10,32.73,134.23,
06/01/2021,01:09:16.98,1625.00,-553.71,916.99,16.89,-48.29,45.43,-143.55,-58.65,-32.10,32.73,134.23,
06/01/2021,01:09:17.03,567.38,-1756.35,-625.00,7.20,-16.71,-123.48,-144.90,-58.95,-30.75,32.77,134.23,
06/01/2021,01:09:17.04,-1037.11,-2163.09,-553.71,42.20,-41.28,-114.70,-145.80,-59.10,-31.80,32.73,134.23,
06/01/2021,01:09:17.05,-945.31,-2002.44,-444.82,57.56,-10.85,-110.12,-145.65,-57.30,-31.50,32.82,134.23,
06/01/2021,01:09:17.05,-557.62,-1691.41,-118.16,58.11,47.99,-120.37,-145.65,-57.30,-31.50,32.92,134.23,
06/01/2021,01:09:17.07,615.23,-1119.14,472.17,50.49,158.23,-168.23,-145.95,-59.70,-30.75,32.73,134.23,
06/01/2021,01:09:17.07,563.96,-1098.14,553.22,51.89,140.85,-166.89,-145.95,-59.70,-30.75,32.58,134.23,
06/01/2021,01:09:17.08,336.43,-1035.64,562.50,57.44,108.90,-160.55,-145.95,-59.70,-30.75,32.82,134.23,
06/01/2021,01:09:17.08,164.06,-914.55,430.66,66.46,77.44,-143.90,-145.95,-59.70,-30.75,32.82,134.23,
06/01/2021,01:09:17.09,21.97,-822.27,262.21,67.74,67.44,-130.43,-144.90,-57.75,-32.25,32.58,134.23,
06/01/2021,01:09:17.10,131.35,-627.44,528.32,62.68,102.32,-112.80,-147.00,-58.35,-31.35,32.82,134.23,
06/01/2021,01:09:17.11,252.93,-736.82,689.94,55.73,105.85,-113.23,-147.00,-58.35,-31.35,32.73,134.23,
06/01/2021,01:09:17.11,388.18,-895.51,784.18,43.54,99.27,-110.79,-146.25,-57.60,-31.80,32.63,134.23,
06/01/2021,01:09:17.12,472.17,-954.10,850.59,40.24,83.05,-106.71,-146.25,-57.60,-31.80,32.63,134.23,
06/01/2021,01:09:17.12,554.20,-992.68,765.62,38.48,60.30,-96.77,-145.05,-57.90,-31.80,32.73,134.23,
06/01/2021,01:09:17.14,632.81,-1031.25,276.86,38.96,-27.13,-69.27,-145.05,-57.90,-31.80,32.63,134.23,
06/01/2021,01:09:17.14,647.46,-1054.69,221.68,40.61,-46.10,-65.24,-147.45,-59.25,-30.15,32.73,134.23,
06/01/2021,01:09:17.14,541.02,-1062.01,245.61,42.56,-61.59,-62.13,-147.45,-59.25,-30.15,32.29,134.23,
06/01/2021,01:09:17.15,398.44,-1060.55,288.57,43.35,-69.27,-59.45,-145.95,-57.30,-31.50,32.77,134.23,
06/01/2021,01:09:17.15,241.70,-1059.57,284.67,45.55,-69.94,-50.24,-145.95,-57.30,-31.50,32.73,134.23,
06/01/2021,01:09:17.17,-14.16,-1051.76,167.48,38.54,-64.63,-35.79,-148.20,-56.55,-29.40,32.73,134.23,
06/01/2021,01:09:17.17,-36.13,-1025.88,124.51,39.02,-54.45,-35.00,-148.20,-56.55,-29.40,32.77,134.23,
06/01/2021,01:09:17.18,-63.48,-1000.49,106.45,37.56,-36.83,-31.89,-148.20,-56.55,-29.40,32.82,134.23,
06/01/2021,01:09:17.18,-70.80,-1005.37,102.54,34.88,-23.54,-33.48,-148.20,-56.55,-29.40,32.73,134.23,
06/01/2021,01:09:17.19,-63.48,-984.86,122.07,32.62,-14.09,-35.85,-147.90,-56.25,-31.95,32.92,134.23,
06/01/2021,01:09:17.22,78.12,-987.79,322.75,23.96,29.70,-45.37,-148.65,-56.55,-28.95,32.73,134.23,
06/01/2021,01:09:17.23,103.52,-985.35,334.96,23.11,24.88,-42.38,-146.40,-55.80,-30.15,32.58,134.23,
06/01/2021,01:09:17.23,128.91,-969.73,326.66,21.16,18.90,-41.77,-146.40,-55.80,-30.15,32.63,134.23,
06/01/2021,01:09:17.24,167.48,-937.99,336.91,20.18,11.83,-37.93,-146.70,-57.30,-28.95,32.39,134.23,
06/01/2021,01:09:17.24,179.20,-938.48,364.75,19.21,5.18,-41.28,-146.70,-57.30,-28.95,32.77,134.23,
06/01/2021,01:09:17.26,179.69,-912.11,361.82,21.71,-27.74,-27.32,-146.70,-57.30,-28.95,32.97,134.23,
06/01/2021,01:09:17.26,171.88,-904.79,354.00,20.73,-32.80,-24.70,-147.15,-57.75,-29.40,32.73,134.23,
06/01/2021,01:09:17.26,145.02,-921.39,327.15,18.54,-39.82,-19.39,-147.15,-57.75,-29.40,32.77,134.23,
06/01/2021,01:09:17.27,135.74,-954.59,308.11,19.63,-43.35,-17.93,-148.20,-56.55,-30.45,32.82,134.23,
06/01/2021,01:09:17.27,115.23,-979.49,271.97,20.18,-44.27,-18.11,-148.20,-56.55,-30.45,32.73,134.23,
06/01/2021,01:09:17.29,45.41,-1005.37,202.64,17.99,-31.71,-21.71,-149.70,-56.55,-28.95,32.92,134.23,
06/01/2021,01:09:17.29,31.74,-1030.27,203.61,19.33,-26.46,-21.59,-149.70,-56.55,-28.95,32.77,134.23,
06/01/2021,01:09:17.30,19.04,-1012.70,224.61,16.77,-16.89,-23.84,-149.70,-56.55,-28.95,32.97,134.23,
06/01/2021,01:09:17.30,6.84,-1014.16,230.96,18.41,-11.40,-24.63,-149.70,-56.55,-28.95,32.58,134.23,
06/01/2021,01:09:17.31,13.67,-996.09,229.00,16.04,-4.70,-26.65,-148.05,-57.15,-29.55,32.73,134.23,
06/01/2021,01:09:17.32,71.29,-964.84,279.30,14.63,10.73,-33.96,-149.55,-56.70,-29.85,32.73,134.23,
06/01/2021,01:09:17.33,97.17,-956.54,290.53,16.10,11.65,-34.51,-149.85,-57.15,-29.55,32.77,134.23,
06/01/2021,01:09:17.33,133.79,-950.20,301.27,10.98,11.10,-32.01,-149.85,-57.15,-29.55,32.82,134.23,
06/01/2021,01:09:17.34,166.02,-959.47,330.08,15.24,8.60,-32.13,-149.40,-56.55,-29.40,32.82,134.23,
06/01/2021,01:09:17.34,185.06,-955.08,337.40,17.13,5.98,-31.04,-149.40,-56.55,-29.40,32.77,134.23,
06/01/2021,01:09:17.35,221.68,-957.03,332.52,17.07,-3.17,-30.73,-149.40,-56.55,-29.40,32.44,134.23,
06/01/2021,01:09:17.36,210.94,-942.87,329.10,21.10,-23.48,-27.62,-150.45,-56.55,-28.20,32.63,134.23,
06/01/2021,01:09:17.37,172.36,-951.17,316.89,19.09,-28.35,-25.00,-150.45,-56.55,-28.20,32.82,134.23,
06/01/2021,01:09:17.37,122.56,-943.36,302.73,17.62,-28.66,-24.45,-149.10,-56.40,-29.55,32.63,134.23,
06/01/2021,01:09:17.37,90.33,-964.36,282.23,19.70,-28.17,-25.37,-149.10,-56.40,-29.55,32.63,134.23,
06/01/2021,01:09:17.38,67.38,-975.10,285.64,18.29,-23.96,-29.33,-149.10,-55.95,-28.05,32.73,134.23,
06/01/2021,01:09:17.39,48.34,-992.19,268.55,15.18,-6.10,-35.61,-150.15,-56.25,-29.40,32.82,134.23,
06/01/2021,01:09:17.40,62.01,-984.86,264.16,15.73,-1.95,-38.35,-150.15,-56.25,-29.40,32.63,134.23,
06/01/2021,01:09:17.40,70.31,-990.23,277.83,17.07,4.33,-41.22,-150.15,-56.25,-29.40,32.92,134.23,
06/01/2021,01:09:17.41,106.93,-973.63,274.90,14.02,6.22,-39.76,-149.55,-57.15,-28.80,32.92,134.23,
06/01/2021,01:09:17.41,125.98,-979.98,283.20,14.76,10.49,-43.41,-149.55,-57.15,-28.80,32.77,134.23,
06/01/2021,01:09:17.43,167.97,-942.87,321.29,16.71,6.46,-48.05,-150.60,-55.95,-28.50,32.63,134.23,
06/01/2021,01:09:17.43,183.11,-951.17,308.11,17.20,2.50,-47.13,-150.60,-55.95,-28.50,32.77,134.23,
06/01/2021,01:09:17.44,191.41,-961.43,307.62,17.38,0.00,-49.88,-150.90,-54.30,-28.50,32.73,134.23,
06/01/2021,01:09:17.44,186.52,-958.50,298.83,18.48,-2.20,-46.46,-150.90,-54.30,-28.95,32.73,134.23,
06/01/2021,01:09:17.45,189.45,-950.68,315.43,19.33,-1.40,-48.35,-150.90,-54.30,-28.95,32.58,134.23,
06/01/2021,01:09:17.46,188.96,-955.57,294.92,20.67,-2.56,-52.62,-150.15,-56.55,-28.20,32.82,134.23,
06/01/2021,01:09:17.47,171.39,-971.19,304.20,20.55,0.37,-53.48,-150.15,-56.55,-28.20,32.92,134.23,
06/01/2021,01:09:17.47,162.60,-958.98,309.57,21.28,-2.13,-53.23,-150.15,-56.55,-28.20,32.73,134.23,
06/01/2021,01:09:17.47,176.76,-973.14,303.22,22.13,0.00,-53.96,-150.15,-56.55,-28.20,32.73,134.23,
06/01/2021,01:09:17.48,195.31,-967.77,299.32,21.77,4.82,-52.93,-150.90,-57.30,-28.20,32.82,134.23,
06/01/2021,01:09:17.49,246.58,-969.73,330.57,20.91,3.54,-59.15,-152.25,-56.25,-27.60,32.63,134.23,
06/01/2021,01:09:17.50,256.35,-957.03,346.19,22.01,2.50,-56.77,-151.20,-55.05,-28.95,32.82,134.23,
06/01/2021,01:09:17.55,325.20,-972.17,344.24,20.79,-16.59,-59.02,-152.55,-55.65,-28.05,32.73,134.23,
06/01/2021,01:09:17.57,331.54,-976.56,345.70,20.55,-16.71,-59.63,-153.30,-53.25,-28.80,32.92,134.23,
06/01/2021,01:09:17.57,332.03,-998.05,342.29,17.62,-16.71,-59.82,-153.30,-53.25,-28.80,32.73,134.23,
06/01/2021,01:09:17.59,328.61,-1016.11,345.70,15.91,-20.37,-63.60,-153.30,-55.20,-27.00,32.77,134.23,
06/01/2021,01:09:17.59,315.92,-1030.76,350.59,17.07,-22.38,-64.09,-154.65,-55.95,-26.25,32.63,134.23,
06/01/2021,01:09:17.60,324.71,-1052.73,343.26,12.93,-19.33,-65.85,-154.65,-55.95,-26.25,32.82,134.23,
06/01/2021,01:09:17.60,320.80,-1061.52,372.07,15.00,-21.65,-67.20,-154.35,-55.65,-28.80,32.92,134.23,
06/01/2021,01:09:17.60,311.52,-1078.12,373.05,14.27,-26.16,-69.27,-154.35,-55.65,-28.80,32.73,134.23,
06/01/2021,01:09:17.62,319.82,-1137.21,357.91,11.95,-29.51,-77.80,-154.95,-54.30,-27.90,32.77,134.23,
06/01/2021,01:09:17.62,345.21,-1145.02,332.52,13.48,-29.82,-76.04,-154.95,-54.30,-27.90,32.73,134.23,
06/01/2021,01:09:17.63,346.19,-1153.81,313.96,13.35,-28.66,-79.45,-154.05,-54.45,-28.05,32.73,134.23,
06/01/2021,01:09:17.63,314.94,-1171.88,305.18,12.44,-28.90,-84.70,-154.05,-54.45,-28.05,32.77,134.23,
06/01/2021,01:09:17.64,307.62,-1183.11,316.89,14.33,-30.49,-88.78,-154.05,-54.45,-28.05,32.44,134.23,
06/01/2021,01:09:17.65,301.27,-1330.57,358.89,7.74,-25.06,-97.68,-155.25,-55.35,-26.85,32.77,134.23,
06/01/2021,01:09:17.66,297.85,-1339.84,382.32,8.78,-23.54,-102.68,-155.25,-55.05,-28.20,32.77,134.23,
06/01/2021,01:09:17.66,309.57,-1341.31,395.02,10.98,-24.63,-103.60,-155.25,-55.05,-28.20,32.73,134.23,
06/01/2021,01:09:17.67,329.59,-1338.38,401.37,7.32,-25.55,-107.32,-155.25,-55.05,-28.20,32.58,134.23,
06/01/2021,01:09:17.67,362.79,-1329.59,370.12,7.80,-29.88,-108.84,-156.45,-54.30,-27.90,32.73,134.23,
06/01/2021,01:09:17.69,333.01,-1324.22,326.66,18.90,-62.32,-118.41,-156.75,-55.05,-28.20,32.58,134.23,
06/01/2021,01:09:17.70,248.54,-1328.61,320.31,21.22,-75.24,-117.99,-156.75,-55.05,-28.20,32.63,134.23,
06/01/2021,01:09:17.70,219.73,-1341.80,314.94,22.07,-80.91,-115.61,-157.65,-56.40,-27.30,32.73,134.23,
06/01/2021,01:09:17.71,198.24,-1341.31,321.78,22.68,-83.41,-115.49,-157.65,-56.40,-27.30,32.73,134.23,
06/01/2021,01:09:17.71,159.67,-1347.17,330.08,21.95,-90.30,-115.91,-158.25,-54.60,-28.20,32.73,134.23,
06/01/2021,01:09:17.73,110.84,-1377.44,445.31,28.41,-101.95,-110.85,-159.30,-53.85,-27.90,32.92,134.23,
06/01/2021,01:09:17.73,102.05,-1372.56,475.59,32.20,-99.15,-111.10,-160.80,-53.55,-27.15,32.77,134.23,
06/01/2021,01:09:17.74,83.50,-1344.24,492.19,34.33,-103.41,-115.98,-160.80,-53.55,-27.15,32.63,134.23,
06/01/2021,01:09:17.74,41.99,-1319.82,521.97,38.41,-103.84,-123.90,-160.80,-53.55,-27.15,32.92,134.23,
06/01/2021,01:09:17.75,16.11,-1302.73,510.25,43.48,-100.18,-124.82,-160.80,-53.55,-27.15,32.77,134.23,
06/01/2021,01:09:17.76,134.28,-1378.42,506.84,50.73,-84.33,-147.62,-161.70,-52.20,-27.30,32.73,134.23,
06/01/2021,01:09:17.76,155.27,-1407.23,496.09,49.94,-73.72,-157.68,-161.70,-52.20,-27.30,32.58,134.23,
06/01/2021,01:09:17.77,191.41,-1456.05,470.70,51.40,-60.49,-164.02,-163.05,-53.55,-28.20,33.06,134.23,
06/01/2021,01:09:17.77,238.28,-1464.84,450.20,48.60,-52.01,-170.12,-163.05,-53.55,-28.20,32.77,134.23,
06/01/2021,01:09:17.78,304.20,-1463.38,404.79,41.83,-46.10,-180.61,-164.40,-52.20,-28.05,32.73,134.23,
06/01/2021,01:09:17.79,114.75,-1320.80,447.27,40.30,-54.15,-175.67,-164.40,-52.20,-28.05,32.77,134.23,
06/01/2021,01:09:17.80,101.56,-1245.12,423.83,36.34,-56.46,-166.04,-164.85,-52.35,-26.40,32.73,134.23,
06/01/2021,01:09:17.80,115.23,-1170.90,397.46,34.63,-50.61,-159.33,-164.85,-52.35,-26.40,32.82,134.23,
06/01/2021,01:09:17.81,144.53,-1115.72,342.77,30.73,-47.26,-153.96,-164.85,-52.35,-26.40,32.77,134.23,
06/01/2021,01:09:17.81,124.02,-1092.77,294.43,26.22,-47.32,-150.67,-164.85,-52.35,-26.40,32.58,134.23,
06/01/2021,01:09:17.83,-269.04,-888.18,311.04,22.32,-50.18,-105.98,-167.55,-51.15,-27.60,32.44,134.23,
06/01/2021,01:09:17.83,-312.99,-785.64,283.69,25.61,-47.01,-84.76,-166.35,-51.90,-26.10,32.77,134.23,
06/01/2021,01:09:17.84,-238.77,-644.53,272.46,24.57,-41.34,-70.73,-166.35,-51.90,-26.10,32.73,134.23,
06/01/2021,01:09:17.84,-113.77,-487.79,250.00,25.98,-30.98,-61.34,-167.70,-50.25,-26.55,32.77,134.23,
06/01/2021,01:09:17.85,60.55,-375.00,203.61,20.18,-16.95,-67.13,-167.70,-50.25,-26.55,32.44,134.23,
06/01/2021,01:09:17.86,34.18,-404.30,263.18,6.89,4.09,-50.18,-167.10,-49.20,-27.60,32.58,134.23,
06/01/2021,01:09:17.87,94.24,-484.38,418.46,12.56,1.28,-37.26,-167.10,-49.20,-27.60,32.77,134.23,
06/01/2021,01:09:17.87,195.31,-501.95,401.86,15.30,-3.90,-19.63,-166.05,-52.35,-26.40,32.73,134.23,
06/01/2021,01:09:17.87,159.67,-485.84,331.54,7.87,-6.95,-7.80,-166.05,-52.35,-26.40,32.92,134.23,
06/01/2021,01:09:17.88,-7.81,-449.22,225.59,1.22,-14.94,9.33,-167.85,-49.95,-27.60,32.82,134.23,
06/01/2021,01:09:17.89,-393.55,-448.24,141.60,-10.85,-16.65,81.04,-167.55,-50.85,-26.40,32.82,134.23,
06/01/2021,01:09:17.90,-418.95,-425.78,138.67,-11.52,-17.20,92.13,-169.20,-49.80,-26.25,32.82,134.23,
06/01/2021,01:09:17.90,-421.39,-403.81,116.70,-11.40,-9.51,95.79,-169.20,-49.80,-26.25,32.73,134.23,
06/01/2021,01:09:17.91,-373.05,-388.18,89.84,-15.61,2.38,100.67,-169.20,-49.80,-26.25,32.73,134.23,
06/01/2021,01:09:17.91,-313.48,-373.05,91.31,-18.41,18.11,98.60,-169.20,-49.80,-26.25,32.77,134.23,
06/01/2021,01:09:17.93,-156.25,-440.92,140.62,-25.24,63.05,123.78,-168.00,-52.50,-25.95,32.92,134.23,
06/01/2021,01:09:17.93,-91.31,-472.66,151.86,-28.84,64.39,136.34,-168.30,-53.10,-27.15,32.73,134.23,
06/01/2021,01:09:17.94,-39.06,-504.39,153.81,-30.06,61.95,150.49,-168.30,-53.10,-27.15,32.39,134.23,
06/01/2021,01:09:17.94,7.32,-564.94,164.55,-33.84,56.46,160.24,-168.45,-51.30,-27.75,32.82,134.23,
06/01/2021,01:09:17.95,27.34,-622.07,172.85,-34.02,52.74,171.59,-168.45,-51.30,-27.75,32.73,134.23,
06/01/2021,01:09:17.96,81.05,-685.55,135.25,-37.44,49.21,203.66,-166.20,-52.20,-26.25,32.73,134.23,
06/01/2021,01:09:17.97,99.12,-701.17,121.09,-37.44,48.41,213.23,-166.20,-52.20,-26.25,32.97,134.23,
06/01/2021,01:09:17.97,134.77,-724.61,142.09,-39.21,51.65,217.87,-165.60,-55.35,-26.10,32.92,134.23,
06/01/2021,01:09:17.97,170.90,-775.39,166.99,-42.01,51.71,224.82,-165.60,-55.35,-26.10,32.63,134.23,
06/01/2021,01:09:17.98,211.43,-798.83,188.96,-46.28,47.44,233.41,-164.70,-54.00,-28.50,32.73,134.23,
06/01/2021,01:09:18.00,347.66,-933.11,253.91,-50.73,31.89,251.59,-162.90,-56.40,-26.25,32.73,134.23,
06/01/2021,01:09:18.00,361.82,-956.05,254.88,-49.09,23.66,256.89,-162.15,-55.95,-26.25,32.82,134.23,
06/01/2021,01:09:18.00,362.79,-977.54,261.72,-49.76,24.63,262.56,-162.15,-55.95,-26.25,32.73,134.23,
06/01/2021,01:09:18.06,331.54,-1333.01,316.41,-58.35,95.61,276.95,-159.15,-60.30,-26.55,33.06,134.23,
06/01/2021,01:09:18.07,350.59,-1376.95,373.54,-65.43,111.59,275.37,-154.20,-60.90,-27.60,32.77,134.23,
06/01/2021,01:09:18.09,369.14,-1438.96,423.83,-69.45,132.38,266.40,-154.20,-60.90,-27.60,32.92,134.22,
06/01/2021,01:09:18.09,394.04,-1451.66,460.94,-73.60,140.06,264.57,-151.05,-59.55,-27.75,32.92,134.23,
06/01/2021,01:09:18.09,411.62,-1467.77,470.70,-75.49,140.61,265.79,-151.05,-59.55,-27.75,32.82,134.23,
06/01/2021,01:09:18.10,427.73,-1484.86,497.56,-76.04,142.32,258.78,-147.45,-60.45,-28.65,32.58,134.23,
06/01/2021,01:09:18.10,421.88,-1498.54,526.86,-77.01,137.56,258.23,-147.45,-60.45,-28.65,32.82,134.23,
06/01/2021,01:09:18.12,419.92,-1500.49,595.70,-77.01,132.68,247.13,-145.20,-60.45,-27.60,32.63,134.23,
06/01/2021,01:09:18.12,472.17,-1505.86,593.26,-76.95,128.84,243.84,-145.20,-60.45,-27.60,32.77,134.23,
06/01/2021,01:09:18.13,563.96,-1489.26,612.79,-81.59,123.60,239.57,-145.20,-60.45,-27.60,32.63,134.23,
06/01/2021,01:09:18.13,673.83,-1470.21,630.86,-83.96,115.12,233.60,-145.20,-60.45,-27.60,32.73,134.23,
06/01/2021,01:09:18.14,722.17,-1454.59,635.74,-80.67,109.51,228.11,-145.20,-60.45,-27.60,32.63,134.23,
06/01/2021,01:09:18.15,993.16,-1415.53,752.44,-75.55,62.26,216.22,-140.70,-61.05,-28.05,32.73,134.23,
06/01/2021,01:09:18.16,991.21,-1334.96,800.78,-69.82,43.60,213.17,-140.70,-61.05,-28.05,32.77,134.23,
06/01/2021,01:09:18.16,954.10,-1196.78,834.96,-60.06,23.05,203.60,-139.50,-59.10,-29.55,32.63,134.23,
06/01/2021,01:09:18.17,964.84,-1079.10,833.01,-50.73,2.99,199.02,-139.50,-59.10,-29.55,32.82,134.23,
06/01/2021,01:09:18.17,987.30,-1006.35,836.91,-38.54,-14.27,195.67,-137.85,-58.95,-28.20,32.73,134.23,
06/01/2021,01:09:18.19,1117.19,-948.73,736.33,-12.20,-60.12,162.62,-137.85,-58.95,-28.20,32.97,134.23,
06/01/2021,01:09:18.19,1174.32,-942.87,702.15,-5.43,-72.99,150.37,-138.00,-58.35,-28.05,33.11,134.23,
06/01/2021,01:09:18.20,1172.85,-925.29,660.64,3.05,-80.18,132.93,-138.00,-58.35,-28.05,32.77,134.23,
06/01/2021,01:09:18.20,1155.27,-914.55,620.12,13.66,-81.83,115.06,-136.35,-58.50,-28.95,32.73,134.23,
06/01/2021,01:09:18.21,1119.14,-890.14,582.52,17.32,-79.70,96.89,-136.35,-58.50,-28.95,32.58,134.23,
06/01/2021,01:09:18.22,974.12,-843.75,500.49,34.02,-48.48,37.74,-136.95,-57.90,-24.75,32.82,134.23,
06/01/2021,01:09:18.22,972.17,-833.50,482.91,36.46,-33.72,19.70,-136.95,-57.90,-24.75,32.73,134.23,
06/01/2021,01:09:18.23,977.05,-830.08,483.40,42.20,-17.01,-3.05,-136.95,-57.90,-24.75,32.82,134.23,
06/01/2021,01:09:18.23,942.38,-829.59,464.84,42.74,-2.93,-19.51,-136.80,-57.30,-26.10,32.73,134.23,
06/01/2021,01:09:18.24,925.29,-853.03,444.82,46.83,9.63,-36.34,-136.80,-57.30,-26.10,32.73,134.23,
06/01/2021,01:09:18.25,818.85,-933.59,249.51,46.40,57.87,-83.72,-136.50,-56.70,-25.50,32.73,134.23,
06/01/2021,01:09:18.26,749.51,-1009.28,77.64,43.23,72.38,-96.89,-136.50,-56.70,-25.50,32.92,134.23,
06/01/2021,01:09:18.26,626.95,-1171.88,-236.33,29.45,85.18,-111.40,-135.60,-57.00,-24.60,32.73,134.23,
06/01/2021,01:09:18.27,457.52,-1371.09,-545.41,16.28,105.00,-120.12,-135.60,-57.00,-24.60,32.92,134.23,
06/01/2021,01:09:18.27,132.32,-1611.82,-666.99,3.35,123.35,-126.10,-135.45,-58.35,-23.40,32.77,134.23,
06/01/2021,01:09:18.29,-968.26,-1911.62,-481.45,34.15,167.26,-124.82,-137.85,-60.00,-26.10,32.82,134.23,
06/01/2021,01:09:18.30,-455.08,-1623.05,-268.55,36.95,208.11,-135.91,-137.85,-60.00,-26.10,32.63,134.23,
06/01/2021,01:09:18.30,136.72,-1410.64,3.42,33.96,244.63,-152.50,-137.85,-60.00,-26.10,32.97,134.23,
06/01/2021,01:09:18.30,713.38,-1304.20,143.55,33.17,263.90,-164.82,-137.85,-60.00,-26.10,32.73,134.23,
06/01/2021,01:09:18.31,1155.27,-1286.13,257.32,33.41,256.28,-175.49,-134.10,-58.95,-27.15,32.82,134.23,
06/01/2021,01:09:18.33,829.59,-971.68,318.85,64.94,78.35,-158.78,-133.65,-59.10,-27.00,32.73,134.23,
06/01/2021,01:09:18.33,515.14,-853.03,283.69,78.66,31.59,-134.33,-133.65,-59.10,-27.00,32.73,134.23,
06/01/2021,01:09:18.33,216.31,-771.48,334.47,85.43,10.12,-118.84,-133.65,-61.35,-28.05,32.82,134.23,
06/01/2021,01:09:18.34,-60.06,-721.19,460.94,87.99,11.71,-112.07,-133.65,-61.35,-28.05,32.58,134.23,
06/01/2021,01:09:18.34,-260.25,-656.74,676.76,86.65,20.30,-111.40,-135.30,-60.45,-26.85,32.63,134.23,
06/01/2021,01:09:18.36,16.11,-936.52,740.72,57.62,57.44,-112.01,-135.30,-60.45,-26.85,32.92,134.23,
06/01/2021,01:09:18.36,193.36,-1088.87,670.90,44.02,51.59,-117.26,-136.35,-58.50,-26.85,32.73,134.23,
06/01/2021,01:09:18.37,362.30,-1095.70,687.01,46.04,31.40,-120.91,-136.35,-58.50,-26.85,32.77,134.23,
06/01/2021,01:09:18.37,471.19,-1014.65,591.31,53.11,19.57,-119.33,-135.90,-60.30,-27.00,32.58,134.23,
06/01/2021,01:09:18.38,494.63,-976.56,489.26,57.80,4.70,-112.50,-135.90,-60.30,-27.00,32.73,134.23,
06/01/2021,01:09:18.39,539.06,-1030.27,217.77,53.17,-58.96,-89.76,-137.25,-59.10,-26.55,32.73,134.23,
06/01/2021,01:09:18.40,443.85,-1023.93,177.25,55.98,-62.01,-81.22,-137.25,-59.10,-26.55,32.63,134.23,
06/01/2021,01:09:18.40,289.55,-1032.71,188.96,57.80,-59.94,-68.29,-137.25,-59.10,-26.55,32.63,134.23,
06/01/2021,01:09:18.41,170.41,-1049.80,211.91,61.89,-53.60,-59.82,-137.25,-59.10,-26.55,32.58,134.23,
06/01/2021,01:09:18.41,94.24,-1071.78,261.72,58.05,-46.22,-53.35,-134.85,-58.95,-26.40,32.92,134.23,
06/01/2021,01:09:18.43,-143.07,-1027.34,261.23,47.50,-9.88,-56.89,-134.85,-58.95,-26.40,32.77,134.23,
06/01/2021,01:09:18.43,-150.39,-1006.84,265.14,44.21,-1.77,-57.56,-134.85,-58.95,-26.40,32.63,134.23,
06/01/2021,01:09:18.43,-103.03,-978.52,247.07,38.96,7.87,-62.99,-139.50,-60.30,-25.50,32.73,134.23,
06/01/2021,01:09:18.44,-36.13,-958.98,227.54,35.24,20.67,-62.50,-139.50,-60.30,-25.50,32.77,134.23,
06/01/2021,01:09:18.44,48.34,-967.29,234.38,36.04,22.20,-62.07,-137.55,-60.00,-24.60,32.77,134.23,
06/01/2021,01:09:18.46,223.14,-988.28,388.18,33.90,18.96,-56.34,-138.45,-58.35,-26.25,32.53,134.23,
06/01/2021,01:09:18.46,235.84,-990.23,444.82,34.63,8.60,-54.94,-138.60,-60.45,-23.10,32.73,134.23,
06/01/2021,01:09:18.47,252.44,-965.82,484.38,32.32,2.01,-48.60,-138.60,-60.45,-23.10,32.97,134.23,
06/01/2021,01:09:18.47,253.91,-939.45,502.44,33.48,-12.13,-46.52,-138.60,-60.45,-23.10,32.58,134.23,
06/01/2021,01:09:18.48,234.38,-897.95,503.42,30.06,-22.62,-41.10,-138.60,-60.45,-23.10,32.82,134.23,
06/01/2021,01:09:18.49,142.58,-891.60,407.71,28.17,-46.71,-30.18,-139.20,-58.35,-25.20,32.73,134.23,
06/01/2021,01:09:18.50,132.81,-913.57,392.58,29.63,-47.38,-25.06,-139.20,-58.35,-25.20,32.82,134.23,
06/01/2021,01:09:18.50,113.28,-958.01,360.84,28.54,-50.91,-22.93,-137.70,-59.55,-24.45,32.77,134.23,
06/01/2021,01:09:18.51,104.49,-985.35,344.73,29.33,-49.82,-26.95,-137.70,-59.55,-24.45,32.73,134.23,
06/01/2021,01:09:18.51,75.68,-993.16,333.98,25.91,-40.37,-25.12,-140.40,-57.30,-24.30,32.73,134.23,
06/01/2021,01:09:18.57,159.18,-943.85,394.04,18.66,-29.94,-29.33,-142.80,-57.90,-23.40,32.73,134.22,
06/01/2021,01:09:18.59,172.85,-919.92,374.51,20.98,-35.06,-22.74,-142.20,-59.10,-23.40,32.92,134.22,
06/01/2021,01:09:18.59,168.95,-925.78,361.33,19.21,-35.43,-23.84,-142.20,-59.10,-23.40,32.82,134.22,
06/01/2021,01:09:18.60,142.58,-932.62,379.88,19.51,-34.82,-26.22,-142.20,-59.10,-23.40,32.73,134.22,
06/01/2021,01:09:18.60,138.18,-925.78,374.02,18.60,-33.17,-24.45,-142.20,-57.60,-22.95,32.77,134.23,
06/01/2021,01:09:18.62,112.79,-944.82,371.58,17.87,-25.91,-29.15,-142.65,-58.95,-23.10,32.73,134.22,
06/01/2021,01:09:18.62,124.51,-942.38,389.65,15.24,-22.01,-31.59,-143.40,-59.70,-22.05,32.53,134.22,
06/01/2021,01:09:18.63,129.39,-928.22,389.65,15.85,-19.21,-32.01,-143.40,-59.70,-22.05,32.73,134.22,
06/01/2021,01:09:18.63,147.46,-924.32,387.70,14.57,-18.96,-32.74,-143.40,-59.70,-22.05,32.53,134.23,
06/01/2021,01:09:18.64,165.04,-927.73,391.60,14.15,-19.21,-29.51,-141.90,-56.25,-22.80,32.82,134.23,
06/01/2021,01:09:18.65,234.38,-932.62,393.07,13.11,-23.17,-31.46,-141.90,-56.25,-22.80,32.92,134.22,
06/01/2021,01:09:18.65,232.42,-924.80,397.46,17.68,-26.59,-33.29,-144.00,-57.60,-21.90,32.77,134.22,
06/01/2021,01:09:18.66,223.63,-927.25,395.51,16.77,-26.52,-30.43,-144.00,-57.60,-21.90,32.82,134.23,
06/01/2021,01:09:18.66,214.84,-925.78,383.30,17.38,-29.02,-33.35,-143.85,-57.00,-21.30,32.53,134.23,
06/01/2021,01:09:18.67,203.12,-945.31,383.30,15.06,-32.68,-30.85,-143.85,-57.00,-21.30,32.82,134.23,
06/01/2021,01:09:18.68,194.82,-951.17,370.12,15.43,-27.87,-34.57,-144.60,-57.30,-22.05,32.63,134.23,
06/01/2021,01:09:18.69,182.62,-956.54,375.98,18.05,-29.21,-34.27,-144.60,-57.30,-22.05,32.63,134.23,
06/01/2021,01:09:18.69,191.89,-957.52,367.68,18.54,-25.55,-39.15,-144.60,-57.30,-22.05,32.73,134.23,
06/01/2021,01:09:18.70,200.68,-968.26,370.12,18.84,-28.05,-38.29,-144.60,-57.30,-22.05,32.73,134.23,
06/01/2021,01:09:18.70,201.66,-959.47,374.51,18.96,-26.95,-41.34,-144.90,-58.50,-22.80,32.63,134.23,
06/01/2021,01:09:18.72,211.91,-972.17,365.72,19.88,-25.43,-40.12,-145.20,-57.75,-20.55,32.73,134.23,
06/01/2021,01:09:18.72,215.82,-979.00,379.88,19.57,-26.28,-46.52,-145.50,-56.70,-20.10,32.77,134.23,
06/01/2021,01:09:18.73,219.73,-983.89,402.83,20.30,-28.29,-46.65,-145.50,-56.70,-20.10,32.77,134.23,
06/01/2021,01:09:18.73,215.33,-989.26,387.21,22.93,-28.48,-46.71,-146.40,-57.30,-21.75,32.77,134.23,
06/01/2021,01:09:18.74,226.56,-1006.84,388.18,23.54,-28.29,-47.32,-146.40,-57.30,-21.75,32.73,134.23,
06/01/2021,01:09:18.75,266.60,-1013.67,377.44,23.78,-30.18,-51.04,-146.40,-57.30,-21.75,32.77,134.23,
06/01/2021,01:09:18.76,252.93,-1027.83,375.49,22.68,-32.62,-53.48,-148.20,-57.30,-20.55,32.63,134.23,
06/01/2021,01:09:18.76,252.93,-1033.20,369.63,23.48,-31.16,-55.43,-148.20,-57.30,-20.55,32.92,134.23,
06/01/2021,01:09:18.76,245.61,-1048.34,369.63,24.88,-33.05,-53.17,-148.20,-57.30,-20.55,32.58,134.23,
06/01/2021,01:09:18.77,259.77,-1056.15,359.86,23.96,-29.33,-57.44,-148.20,-57.30,-20.55,32.97,134.23,
06/01/2021,01:09:18.78,285.64,-1049.80,364.75,23.35,-30.61,-64.51,-148.35,-57.15,-20.40,32.77,134.23,
06/01/2021,01:09:18.79,290.04,-1067.38,361.33,23.11,-33.17,-66.52,-148.35,-57.15,-20.40,32.92,134.23,
06/01/2021,01:09:18.79,275.39,-1068.85,373.54,23.29,-32.68,-69.21,-147.90,-55.05,-19.80,32.77,134.23,
06/01/2021,01:09:18.80,284.67,-1059.08,383.79,21.89,-31.22,-71.28,-147.90,-55.05,-19.80,32.73,134.23,
06/01/2021,01:09:18.80,292.48,-1057.62,387.70,21.65,-34.33,-74.82,-147.90,-55.80,-21.00,32.44,134.23,
06/01/2021,01:09:18.82,288.57,-1069.34,403.81,19.70,-38.96,-80.49,-147.90,-55.80,-21.00,32.82,134.23,
06/01/2021,01:09:18.82,283.20,-1073.73,390.14,22.93,-41.46,-83.05,-150.30,-56.40,-20.40,32.58,134.23,
06/01/2021,01:09:18.83,274.41,-1076.66,376.95,23.05,-43.41,-84.09,-150.30,-56.40,-20.40,32.92,134.23,
06/01/2021,01:09:18.83,298.34,-1083.01,388.18,24.15,-43.54,-85.24,-150.30,-55.65,-20.70,32.58,134.23,
06/01/2021,01:09:18.84,283.69,-1097.17,375.00,22.32,-45.24,-90.73,-150.30,-55.65,-20.70,32.92,134.23,
06/01/2021,01:09:18.85,291.02,-1165.04,335.45,21.83,-50.37,-98.11,-151.35,-55.65,-18.60,32.92,134.23,
06/01/2021,01:09:18.86,274.41,-1199.71,325.68,21.77,-47.87,-101.95,-151.35,-55.65,-18.60,32.73,134.23,
06/01/2021,01:09:18.86,249.02,-1242.68,326.17,22.20,-49.45,-104.82,-151.35,-55.65,-18.60,32.73,134.23,
06/01/2021,01:09:18.87,249.02,-1280.76,352.05,19.63,-52.01,-104.45,-151.35,-55.65,-18.60,33.06,134.23,
06/01/2021,01:09:18.87,238.28,-1312.01,370.12,17.87,-52.13,-109.09,-151.35,-55.65,-18.60,32.77,134.23,
06/01/2021,01:09:18.89,253.91,-1338.87,385.25,22.68,-57.32,-117.68,-153.75,-55.05,-18.45,32.77,134.23,
06/01/2021,01:09:18.89,279.30,-1334.47,355.47,23.84,-67.87,-116.04,-155.85,-53.70,-18.15,32.92,134.23,
06/01/2021,01:09:18.90,292.48,-1336.43,328.12,26.65,-70.67,-112.62,-155.85,-53.70,-18.15,32.82,134.23,
06/01/2021,01:09:18.90,289.06,-1350.59,308.59,27.01,-85.85,-115.12,-154.35,-54.00,-21.15,32.92,134.23,
06/01/2021,01:09:18.91,256.35,-1356.45,304.69,28.60,-93.35,-115.00,-154.35,-54.00,-21.15,32.92,134.23,
06/01/2021,01:09:18.92,97.17,-1411.62,329.59,35.37,-111.89,-109.57,-158.40,-53.70,-20.10,32.97,134.23,
06/01/2021,01:09:18.93,31.74,-1400.88,375.00,39.02,-114.09,-110.18,-158.40,-53.70,-20.10,32.53,134.23,
06/01/2021,01:09:18.93,-14.16,-1380.86,431.15,42.32,-116.40,-112.26,-158.40,-53.70,-20.10,32.73,134.23,
06/01/2021,01:09:18.94,-63.48,-1328.61,430.18,48.72,-115.49,-117.13,-158.40,-53.70,-20.10,32.82,134.23,
06/01/2021,01:09:18.95,60.06,-1325.68,440.92,55.98,-99.51,-131.46,-162.00,-51.90,-18.75,32.92,134.23,
06/01/2021,01:09:18.96,109.38,-1345.70,465.82,59.57,-87.62,-136.95,-162.00,-51.90,-18.75,32.73,134.23,
06/01/2021,01:09:18.96,265.62,-1398.93,512.70,59.51,-80.24,-141.52,-162.00,-51.90,-18.75,32.73,134.23,
06/01/2021,01:09:18.97,393.55,-1441.41,551.76,62.07,-61.46,-153.41,-160.80,-49.95,-18.75,32.63,134.23,
06/01/2021,01:09:18.97,385.74,-1496.58,609.38,62.07,-44.45,-159.45,-160.80,-49.95,-18.75,32.63,134.23,
06/01/2021,01:09:18.99,262.70,-1450.68,589.36,57.01,-39.63,-165.24,-162.00,-49.65,-18.45,32.92,134.23,
06/01/2021,01:09:18.99,270.02,-1369.63,527.34,57.13,-46.77,-166.28,-162.00,-49.65,-18.45,32.73,134.23,
06/01/2021,01:09:18.99,301.76,-1306.15,419.92,48.54,-57.26,-160.12,-162.75,-47.70,-18.00,32.63,134.23,
06/01/2021,01:09:19.00,241.21,-1235.84,437.99,43.48,-79.09,-154.39,-162.75,-47.70,-18.00,32.73,134.23,
06/01/2021,01:09:19.00,165.04,-1206.54,377.44,38.35,-101.59,-146.65,-163.65,-47.85,-19.35,32.73,134.23,
06/01/2021,01:09:19.02,-216.31,-1044.92,402.83,26.10,-146.28,-102.20,-166.50,-47.85,-19.65,32.77,134.23,
06/01/2021,01:09:19.02,-315.92,-905.27,371.58,28.05,-148.72,-80.12,-166.95,-45.90,-20.40,32.73,134.23,
06/01/2021,01:09:19.03,-333.50,-758.30,354.00,30.24,-135.30,-60.98,-166.95,-45.90,-20.40,32.39,134.23,
06/01/2021,01:09:19.08,-442.38,-524.90,37.11,-5.73,-97.13,80.24,-170.70,-43.95,-22.20,32.73,134.22,
06/01/2021,01:09:19.10,-555.18,-429.69,-11.23,-1.16,-53.23,114.02,-170.70,-43.95,-23.70,32.73,134.22,
06/01/2021,01:09:19.11,-412.11,-375.98,54.20,-11.46,26.65,111.52,-170.70,-43.95,-23.70,32.73,134.22,
06/01/2021,01:09:19.11,-357.42,-417.48,142.58,-17.20,46.95,117.80,-172.80,-44.85,-24.75,32.73,134.22,
06/01/2021,01:09:19.12,-334.96,-458.98,217.29,-20.67,62.38,129.15,-172.80,-44.85,-24.75,32.82,134.22,
06/01/2021,01:09:19.12,-302.73,-484.38,206.05,-25.24,73.41,141.52,-171.60,-45.00,-25.65,32.77,134.22,
06/01/2021,01:09:19.13,-272.46,-560.06,204.10,-32.01,78.23,157.56,-171.60,-45.00,-25.65,32.58,134.22,
06/01/2021,01:09:19.14,-102.05,-673.34,156.25,-39.57,80.61,197.74,-171.60,-46.95,-25.35,32.58,134.22,
06/01/2021,01:09:19.15,-65.92,-695.31,150.88,-41.46,79.94,201.10,-171.60,-46.95,-25.35,32.63,134.22,
06/01/2021,01:09:19.15,-69.34,-706.54,176.27,-42.26,79.94,209.15,-171.60,-46.95,-25.35,32.63,134.22,
06/01/2021,01:09:19.16,-76.17,-735.84,188.96,-43.84,78.17,223.54,-171.60,-46.95,-25.35,32.82,134.22,
06/01/2021,01:09:19.16,-51.76,-791.50,195.80,-46.40,75.06,233.90,-171.60,-46.95,-25.35,32.82,134.22,
06/01/2021,01:09:19.18,81.05,-930.18,151.86,-54.02,65.67,264.45,-169.95,-48.30,-26.25,32.73,134.22,
06/01/2021,01:09:19.18,142.09,-976.56,158.69,-57.74,61.46,273.96,-169.95,-48.30,-26.25,32.53,134.22,
06/01/2021,01:09:19.19,202.15,-1017.09,165.53,-59.70,57.87,280.18,-167.55,-51.60,-27.90,33.06,134.22,
06/01/2021,01:09:19.19,269.04,-1048.34,179.20,-61.22,52.01,286.28,-167.55,-51.60,-27.90,32.73,134.22,
06/01/2021,01:09:19.20,314.94,-1073.24,181.64,-61.28,42.07,292.01,-166.35,-51.15,-27.90,32.92,134.22,
06/01/2021,01:09:19.21,395.51,-1176.76,183.59,-65.55,18.60,307.01,-166.35,-51.15,-27.90,32.58,134.22,
06/01/2021,01:09:19.22,379.88,-1199.71,200.68,-63.41,11.34,315.43,-165.15,-54.45,-29.55,32.77,134.22,
06/01/2021,01:09:19.22,368.65,-1238.77,226.56,-63.90,4.82,319.09,-165.15,-54.45,-29.55,32.92,134.22,
06/01/2021,01:09:19.22,345.70,-1261.23,221.68,-64.63,5.12,318.05,-164.40,-55.20,-29.55,32.97,134.23,
06/01/2021,01:09:19.23,295.41,-1291.99,233.89,-64.57,6.10,323.23,-164.40,-55.20,-29.55,32.58,134.23,
06/01/2021,01:09:19.24,197.27,-1487.30,325.20,-62.93,27.56,329.33,-163.65,-57.60,-28.50,32.82,134.22,
06/01/2021,01:09:19.25,184.08,-1525.39,320.80,-63.29,33.90,328.11,-163.65,-57.60,-28.50,32.58,134.22,
06/01/2021,01:09:19.25,189.94,-1583.01,326.17,-68.05,42.13,328.35,-163.65,-57.60,-28.50,32.73,134.23,
06/01/2021,01:09:19.26,191.41,-1617.68,327.64,-66.40,51.40,328.11,-163.65,-57.60,-28.50,32.92,134.23,
06/01/2021,01:09:19.26,248.05,-1639.16,354.98,-68.72,58.96,323.35,-159.15,-58.65,-31.35,32.73,134.23,
06/01/2021,01:09:19.28,418.46,-1721.19,392.58,-71.59,86.95,313.72,-158.85,-57.90,-30.60,32.44,134.22,
